time,seconds_elapsed,z,y,x
1760565906248623000,0.103623046875,1.3691425733476876,0.5297403520546853,2.553125563177466
1760565906258652200,0.113652099609375,2.648610720989108,0.33042131028100846,3.387098599028587
1760565906268681000,0.123680908203125,2.184170085710287,0.07914616355970501,3.0643627286836503
1760565906278710000,0.1337099609375,1.3634189350038766,-0.4046934380635619,2.9523610280960795
1760565906288739300,0.1437392578125,0.1827431700259447,-0.6647254533447324,3.234595961226523
1760565906298768100,0.15376806640625,-0.8466670977294445,-0.9066526337452232,3.2928008974358436
1760565906308797200,0.163797119140625,-2.6490608028441667,-1.408575589069724,2.6772218984454867
1760565906318826200,0.173826171875,-4.821069910639524,-2.0531645555756985,2.001863553535938
1760565906328854800,0.183854736328125,-6.55693158070445,-2.3440737935490903,1.7346061170458793
1760565906338883800,0.1938837890625,-7.927696786817908,-2.460237436121702,1.522511910981685
1760565906348912600,0.20391259765625,-8.71625364088416,-2.3086712023869156,1.5523637361489235
1760565906358941700,0.213941650390625,-8.693208865383268,-1.8923820190757512,1.8460121898278592
1760565906368970800,0.223970703125,-7.793007161343097,-1.2601593437984584,2.0820650713674724
1760565906378999800,0.233999755859375,-6.268507437545061,-0.6141654789306223,2.224893725764751
1760565906389028900,0.24402880859375,-4.346033062544465,-0.039135530612804,2.179278952667862
1760565906399056600,0.254056640625,-2.378393850171566,0.42762386646978556,1.9681974307775496
1760565906409085700,0.264085693359375,-0.6370587171316147,0.7349016901157795,1.801034399460256
1760565906419114800,0.27411474609375,0.8012234434157609,0.9965561189670115,1.8407829108722507
1760565906429143800,0.284143798828125,2.0052759923279284,1.2378222781755028,2.0396471946157515
1760565906439172900,0.2941728515625,3.246704624432325,1.3799129736870526,2.495491704854369
1760565906449202000,0.304201904296875,4.468860400789976,1.3566736985273657,3.0161653917476534
1760565906459231000,0.31423095703125,4.375364370968938,1.3991699012123047,2.5489976695924996
1760565906469259800,0.324259765625,4.374662360179424,1.2655515582308172,2.176384692531079
1760565906479288800,0.334288818359375,4.165764758199453,1.0839493749335407,1.9917672530658541
1760565906489318000,0.34431787109375,3.8828351208031173,0.968624375142157,1.8019653967000544
1760565906499346700,0.3543466796875,3.8240187746971843,0.9904042452737688,1.2185903389610349
1760565906509375700,0.364375732421875,3.7527269778996706,0.9870067117899656,0.49899022634085266
1760565906519404800,0.37440478515625,3.72421107751131,0.9428659567683935,-0.17870573120340705
1760565906529433600,0.38443359375,3.6484237228602168,0.9585331892386079,-0.7778569616798311
1760565906539463000,0.394462890625,3.6578538145065305,1.1564451406933367,-1.2465239094167948
1760565906549492000,0.404491943359375,3.792693077585101,1.3986848941743373,-1.443061211517453
1760565906559520800,0.414520751953125,3.933306832411885,1.4932584900990127,-1.2122218999076635
1760565906569549800,0.4245498046875,3.9543987202793356,1.5305685223177075,-0.8687249080196022
1760565906579579000,0.434578857421875,3.730985101690888,1.5146050833798943,-0.5912600388351827
1760565906589607700,0.444607666015625,3.1182962711840867,1.41693834374547,-0.5022230707822367
1760565906599636700,0.45463671875,2.2995330794245,1.4469804307878016,-0.8247298450790346
1760565906609665800,0.464665771484375,1.5624223349571227,1.6178975539416074,-1.4136831413418054
1760565906619694600,0.474694580078125,0.9328764776736498,1.6903697926953434,-1.9228155896537005
1760565906629724000,0.484723876953125,0.4510410554796457,1.6473410905689,-2.230423156710714
1760565906639751700,0.494751708984375,0.12679215022325516,1.5572389409698546,-2.3253692392095924
1760565906649780700,0.50478076171875,-0.1829039135456085,1.4032467952623962,-2.2586606785491106
1760565906659809800,0.514809814453125,-0.5600251618117094,1.2405258380457758,-2.193274452533573
1760565906669838800,0.5248388671875,-0.9038760086387395,1.1538475254155696,-2.057928408976644
1760565906679867600,0.53486767578125,-1.173877775400877,1.0506214711535722,-1.882862349449843
1760565906689896700,0.544896728515625,-1.3750392301708458,0.9317121831346302,-1.8120244338996707
1760565906699926000,0.554926025390625,-1.404351249372959,0.9199995335090905,-1.9556040527947245
1760565906709954800,0.564954833984375,-1.225690964746475,1.0835022887531667,-2.319066485803574
1760565906719983900,0.57498388671875,-1.0072790999680756,1.2320701443895696,-2.61106454192698
1760565906730013000,0.585012939453125,-0.9104150550186634,1.2252945858400315,-2.615897661171853
1760565906740041700,0.595041748046875,-0.9284639219284057,1.1574372204706072,-2.4715067258939145
1760565906750070800,0.60507080078125,-0.8816706065714359,1.134783855440095,-2.307518232959509
1760565906760099800,0.615099853515625,-0.8775573260337114,1.0743420270241797,-2.29912332957983
1760565906770128600,0.625128662109375,-0.9128156864196062,1.007102135965973,-2.365187162595987
1760565906780157700,0.63515771484375,-0.8341875553846358,1.001046416123584,-2.3667323462113736
1760565906790187000,0.64518701171875,-0.6134235745221376,0.9869774856954813,-2.2776713762283323
1760565906800215800,0.6552158203125,-0.33914661465883256,0.837476221666485,-2.109492738127708
1760565906810244900,0.665244873046875,-0.06517886687517166,0.5198006669184193,-2.01274238268584
1760565906820274000,0.67527392578125,0.023702362626791,0.05939352493938058,-2.0240106495447456
1760565906830302700,0.685302734375,0.03878419642448425,-0.42389658957496285,-2.039177092885971
1760565906840331800,0.695331787109375,0.1927513538211584,-0.8264243740372359,-1.985761144518852
1760565906850360800,0.70536083984375,0.36190380539000033,-1.160022560788691,-1.9669459694117306
1760565906860389600,0.7153896484375,0.4402706551402807,-1.4341694645315408,-1.988491446265578
1760565906870418000,0.72541796875,0.4909732528954744,-1.5955499669246374,-2.04289056045115
1760565906880446700,0.73544677734375,0.5579904411137103,-1.6449710004366933,-2.1012083093851803
1760565906890475800,0.745475830078125,0.6966641677886247,-1.8212505274064839,-2.382286327565461
1760565906900504800,0.7555048828125,0.81021455912292,-1.8904579191453754,-2.525604519045353
1760565906910534000,0.765533935546875,0.8618079682379961,-1.6465066855713724,-2.4131544901683926
1760565906920562700,0.775562744140625,0.85807053527534,-1.6131592733733355,-2.2449513021484018
1760565906930591700,0.785591796875,0.7497937004297971,-1.463885972881317,-1.754890487922728
1760565906940620800,0.795620849609375,0.3431605264753103,-1.1268562042459844,-1.250909138763696
1760565906950649900,0.80564990234375,-0.16981296130418777,-0.7490067878358065,-0.8127820715233683
1760565906960679000,0.815678955078125,-0.42581192167699333,-0.4870473846886307,-0.44722025508247315
1760565906970708000,0.8257080078125,-0.7113140399098395,-0.2772027476495132,-0.34134142128936945
1760565906980736800,0.83573681640625,-0.891241567993164,-0.15034995328020304,-0.27331870929040014
1760565906990765800,0.845765869140625,-0.899216200134158,-0.010083623651601373,-0.17415230568274856
1760565907000795000,0.855794921875,-0.8539186762928962,0.04519757059812546,-0.29227066251970824
1760565907010823700,0.86582373046875,-0.7386006907641888,0.16788619449269027,-0.48975627832114693
1760565907020852700,0.875852783203125,-0.6064005440175533,0.251630572562851,-0.5827024922396987
1760565907030881800,0.8858818359375,-0.4578951591581106,-0.06937967956587672,-0.417415410862118
1760565907040910800,0.895910888671875,-0.04346329415142536,-0.5626542316736654,0.0073828037276864045
1760565907050940000,0.90593994140625,0.3931885859698057,-0.2118124665133655,0.08686784385293722
1760565907060969000,0.915968994140625,0.5352314968168735,0.3619637919489294,0.3801568165697157
1760565907070997800,0.925997802734375,0.5108312150537967,0.6252638691153377,0.7417230605684221
1760565907081026800,0.93602685546875,0.5138865109711885,0.40639103576168417,0.9087310474544763
1760565907091055900,0.946055908203125,0.491264929318428,0.020187632504105567,0.8665839504681527
1760565907101084700,0.956084716796875,-0.7933242145985364,-0.5057299463920295,0.004360241036117076
1760565907111113700,0.96611376953125,-2.4141841254770755,-1.5121860395394264,-2.0685946182891723
1760565907121142800,0.976142822265625,-1.7397440644562243,-1.3259871761016546,-2.4362718925140796
1760565907131171600,0.986171630859375,0.8196972577393055,-0.24522753712013362,-1.0580848658367992
1760565907141200000,0.996199951171875,1.3934510851740836,0.2742237683713436,-0.5179221231628209
1760565907151229000,1.00622900390625,0.8927052108049393,0.7576147494442761,-0.2624206639833748
1760565907161257700,1.0162578125,1.8092974931538104,0.14913739915266633,-2.981607580846548
1760565907171286800,1.026286865234375,2.07153680922091,-0.7083430612750351,-3.696104342445731
1760565907181315800,1.03631591796875,1.865636635491252,-0.59668988186419,-2.2625657231636342
1760565907191344600,1.0463447265625,0.6034037002891302,-0.14511070091985165,-1.1684871684037148
1760565907201373700,1.056373779296875,-0.17055588862597942,0.04310812403820455,-0.6137615012396127
1760565907211403000,1.066403076171875,-0.06574468406438827,-0.1482685804288834,0.3201251033246517
1760565907221431800,1.076431884765625,1.8762299256980417,-0.6680334088489412,1.2991506071023642
1760565907231460900,1.0864609375,5.409918431353569,-0.3747613872669637,0.44583263664897527
1760565907241490000,1.096489990234375,-4.313084148144721,0.6236843448389321,-4.788472586156428
1760565907251518700,1.106518798828125,-11.043418823599815,1.8590350452691315,-2.2948599730469286
1760565907261547800,1.1165478515625,1.3970119925260542,-1.8185894915036855,0.4926723849635571
1760565907271576800,1.126576904296875,8.861063093835115,0.5943683435814455,0.24026918406039474
1760565907281605600,1.136605712890625,11.403248160803317,-0.41001189313996583,-0.29268264085408296
1760565907291634700,1.146634765625,-9.87274189006686,0.0384661982501857,6.440259842479229
1760565907301664000,1.1566640625,-18.74625763823986,3.720049281656742,0.9230953806325792
1760565907311692800,1.16669287109375,1.1117904448002576,0.11190667924787849,-1.1498213386394083
1760565907321721900,1.176721923828125,-2.0279455047756434,1.749075371903181,2.6428686702057718
1760565907331750700,1.186750732421875,1.5094605600982904,-0.8228036262568086,-1.0102575312569737
1760565907341779500,1.196779541015625,5.459777564021945,-1.1841590039838106,-0.6113980600439012
1760565907351808500,1.20680859375,-1.628431807437539,0.3059106269460171,0.33986316543035205
1760565907361837600,1.216837646484375,-1.9788976884901524,0.48798156026620415,-0.599031622684747
1760565907371866400,1.226866455078125,1.4757535208076238,-0.18866160028949377,0.27722450282359495
1760565907381895400,1.2368955078125,-0.3925181393623352,0.22094079873412847,-0.22373075824622063
1760565907391924700,1.2469248046875,-0.0990314521163702,0.03569743678974919,-0.3305553119242191
1760565907401952500,1.256952392578125,0.08118307621479035,-0.05637018136309925,-0.04633610964138061
1760565907411981600,1.266981689453125,-0.018891162952780722,0.12584798297462985,0.027207722132932394
1760565907422010400,1.27701025390625,0.19630057073533533,0.007024592274008318,-0.09571388853359968
1760565907432039400,1.287039306640625,-0.14589724818766117,0.07957142150076106,-0.19181482188971713
1760565907442068500,1.297068359375,-0.10410860925018786,-0.17494533749027177,-0.15911544353794305
1760565907452097500,1.30709765625,0.11605682119727134,-0.16809702423177658,-0.17531365934601054
1760565907462126600,1.317126708984375,0.027518121522665022,-0.02998466233324725,-0.1761049741204828
1760565907472155600,1.32715576171875,0.027249825975298878,-0.08349946339838206,-0.2878706374624744
1760565907482184700,1.337184814453125,-0.23456454267799853,-0.018499939712067134,-0.28284108233004807
1760565907492213500,1.347213623046875,0.07882686847746372,-0.0376555166215403,-0.3203243522237986
1760565907502242600,1.35724267578125,0.08184826212525367,-0.029164568988862445,-0.25998872412871565
1760565907512271600,1.367271728515625,-0.04951075762212276,-0.014723704542405902,-0.05631526827150955
1760565907522300400,1.377300537109375,-0.07133446689546108,-0.0010629028240451588,0.07422889142902568
1760565907532329500,1.38732958984375,-0.09973112481832504,0.10473897044244222,0.10107948895366861
1760565907542358500,1.397358642578125,0.05098316826224327,0.15163335328740066,0.17478643886782227
1760565907552387600,1.4073876953125,0.06562777968645095,0.047082224434101955,0.23038332973690703
1760565907562416600,1.417416748046875,-0.033444004440307616,0.039519360564928496,0.20457732762806116
1760565907572445700,1.42744580078125,-0.04304711456596851,-0.010111532288545276,0.0646803427685052
1760565907582474500,1.437474609375,-0.06928922480344772,0.1435952000566758,0.0007501242475584149
1760565907592503600,1.447503662109375,0.006641337710618972,0.3211156487319618,0.07031071333829313
1760565907602532600,1.45753271484375,-0.023400164809823036,0.725586676216498,0.34245084383599456
1760565907612561400,1.4675615234375,-0.03833879074454307,1.1118268312878905,0.8474981417261064
1760565907622590500,1.477590576171875,0.12032675360143184,1.4076160963878035,1.2858724617257713
1760565907632619500,1.48761962890625,0.31260639825761316,1.526717984369397,1.3630806429602205
1760565907642648600,1.497648681640625,0.3763602007657289,1.0265566318899393,0.7854387951109558
1760565907652677600,1.507677734375,-0.016717910566926,0.23992566785234956,-0.2653226690351963
1760565907662706700,1.517706787109375,-0.3098597298979759,-0.24552851109439505,-1.0727641101829708
1760565907672735500,1.527735595703125,-0.03658113342225552,-0.49218215376120056,-1.0985300542760639
1760565907682764500,1.5377646484375,0.033333529803156854,-0.7072820079147816,-0.9199065214633941
1760565907692793600,1.547793701171875,-0.2380208206117153,-0.7330523359220474,-0.9839727509215473
1760565907702821400,1.5578212890625,-0.47045887265503405,-0.4608948158981278,-1.080440124703571
1760565907712850700,1.5678505859375,-0.4628314465165138,-0.21659966425728053,-1.0740740237377584
1760565907722879700,1.577879638671875,0.11962941898703575,-0.4140144433122128,-1.1070370397280902
1760565907732908500,1.587908447265625,0.7363730778425932,-0.5255096922149881,-0.5701491174736991
1760565907742937600,1.5979375,0.43396892464756964,0.010742530518327839,0.37000772646646946
1760565907752966700,1.607966552734375,-0.1011357309192419,0.23722548724925144,0.23736873164484276
1760565907762995500,1.617995361328125,-0.14062427622079848,0.022987227494223043,0.5708869667615741
1760565907773024500,1.6280244140625,-0.7485504223704338,-0.09288033647495321,-0.4060712292227894
1760565907783053600,1.638053466796875,0.6103367144227028,-0.09755756190521642,0.4417536602396518
1760565907793082400,1.648082275390625,0.19909750797748565,-0.33491453004702926,0.17065991525603458
1760565907803111700,1.658111572265625,-0.35619127296209335,-0.1464803635715507,-0.2907448594582267
1760565907813140700,1.668140625,-0.017584756529331207,0.042194662455096836,-0.0882401551194489
1760565907823169500,1.67816943359375,0.12396890949606895,0.08448177983346394,0.00022049261657521127
1760565907833198600,1.688198486328125,-0.019984803408384322,0.14588663546210154,0.004651205073017627
1760565907843227600,1.6982275390625,-0.03319149098396301,0.21331719025420023,-0.07277927714260295
1760565907853256400,1.70825634765625,0.040974399945139885,0.17066570567600428,-0.10476411401685326
1760565907863285500,1.718285400390625,-0.003822773158550262,0.04636260492266155,-0.07582870957478881
1760565907873314600,1.728314453125,-0.0975631331294775,-0.10815704439077525,-0.008270619412884116
1760565907883343400,1.73834326171875,-0.07412555891871452,-0.11486085287835449,0.07188671221705153
1760565907893372400,1.748372314453125,0.14507833302021025,-0.1962359262675978,0.1547803004104644
1760565907903401700,1.758401611328125,0.09814531693160533,-0.26704366587521505,0.18154510108148678
1760565907913430500,1.768430419921875,-0.1412292563766241,-0.3036831966875121,-0.04585561438174918
1760565907923459600,1.77845947265625,-0.08028934224545956,-0.268529045594763,-0.1380096002103761
1760565907933488600,1.788488525390625,0.07507657603323459,-0.2814515824667178,-0.0600886493303813
1760565907943517400,1.798517333984375,-0.02125321590900421,-0.09247028523618354,-0.15518458862872794
1760565907953546500,1.80854638671875,-0.02944879732429981,-0.0615310255918419,-0.17436638682484626
1760565907963575600,1.818575439453125,0.04974398185610771,-0.05415975247174501,-0.0858544290266931
1760565907973604400,1.828604248046875,0.016112345889210702,0.09414095839476212,-0.027640250064991413
1760565907983633400,1.83863330078125,-0.04536649742424488,0.07355940836935769,0.03198215172681957
1760565907993662700,1.848662841796875,-0.0029968437284231186,-0.05067697925674729,0.10932210611477494
1760565908003690500,1.8586904296875,0.002719195830821991,-0.08726308111506514,0.16293156775999812
1760565908013719600,1.868719482421875,-0.031520342901349065,-0.06515939498972147,0.1323150235642679
1760565908023748600,1.87874853515625,0.018785949012637138,-0.04373440271038562,0.08374183905320241
1760565908033777400,1.88877734375,-0.015008184039592741,0.013774322262546046,-0.05572837176164612
1760565908043806500,1.898806396484375,0.02841886975467205,0.16071836695624514,-0.1701413530083373
1760565908053835500,1.90883544921875,-0.03380582349002361,0.18193713260637595,-0.2359858624516986
1760565908063864600,1.918864501953125,0.024871406406164167,0.2819463985126465,-0.20280945943901313
1760565908073893600,1.9288935546875,-0.010434884774684905,0.353474049892649,-0.05502789534209296
1760565908083922700,1.938922607421875,-0.026440847679972648,0.2998966273535043,0.030710652219969777
1760565908093951500,1.948951416015625,0.01097147586941719,0.14773052802942693,0.04653422602936625
1760565908103980500,1.95898046875,0.016060323441028593,0.07199229604995343,0.04537252530623227
1760565908114009600,1.969009521484375,0.036706805628538126,-0.06415226377379149,0.11148492843816056
1760565908124038400,1.979038330078125,0.003186228820681572,-0.1754939660826698,0.17004835922894998
1760565908134067500,1.9890673828125,-0.007734978166222572,-0.2526343427779153,0.14612670956198126
1760565908144096500,1.999096435546875,-0.03018471038341522,-0.300073627888225,-0.002964768089726567
1760565908154125600,2.00912548828125,0.006768763482570648,-0.2852253105854615,-0.1539766010784544
1760565908164154600,2.019154541015625,0.01917231798171997,-0.23878793252669273,-0.3437053739417344
1760565908174183700,2.02918359375,0.04651917459070682,-0.1820052476728335,-0.47063919765800233
1760565908184212500,2.03921240234375,-0.0015624270111322402,-0.1255725818330422,-0.450754895482026
1760565908194241500,2.049241455078125,-0.029302666851878163,-0.10666280551133676,-0.3071336659349501
1760565908204270600,2.0592705078125,-0.0330962139159441,-0.11447454784135333,-0.10939871501494199
1760565908214299400,2.06929931640625,-0.023718144717812535,-0.12161236383202485,-0.05059146553091705
1760565908224328400,2.079328369140625,-0.012092588853836059,-0.1623595034930855,0.05255198848154396
1760565908234357500,2.089357421875,-0.018717559951543807,-0.14843359826486557,0.13260352164944633
1760565908244386600,2.099386474609375,-0.010378770673274994,-0.10262870029020123,0.1779642286537215
1760565908254415600,2.10941552734375,0.010071896681189536,-0.053158512140484525,0.17468069520471616
1760565908264444700,2.119444580078125,0.01599427246749401,0.0263050102727022,0.16817768825255333
1760565908274473500,2.129473388671875,0.02923310874700546,0.12422376103997229,0.11199220210686325
1760565908284502500,2.13950244140625,0.03212415401339531,0.19961674607861785,0.019048143612779674
1760565908294531600,2.149531494140625,0.02810205889046192,0.1596103691817261,-0.07003697443082928
1760565908304560400,2.159560302734375,0.05608312174975872,0.08199879477815702,-0.12189014872694387
1760565908314589400,2.16958935546875,0.09238193109929561,-0.03088118648128584,-0.10344380693221464
1760565908324618800,2.17961865234375,0.12709843969345092,-0.13506969256727025,-0.038110370549838984
1760565908334647800,2.189647705078125,0.10200608401298522,-0.2021117229658179,0.040664457213133574
1760565908344676000,2.199676025390625,0.10030044913887977,-0.22560086296703666,0.08293180131195113
1760565908354705000,2.209704833984375,0.05734510450959205,-0.2493308990520425,0.09629119523121044
1760565908364734000,2.21973388671875,-0.016333879685401915,-0.1992179925519973,0.07913487498071044
1760565908374763000,2.229762939453125,-0.14637363352775573,-0.12369758174140005,0.03987000063350424
1760565908384791800,2.239791748046875,-0.2334457677811384,-0.13268579310541972,-0.006514094601757824
1760565908394820900,2.24982080078125,-0.2414624854981899,-0.17531333055244758,-0.04505940423645079
1760565908404850000,2.259849853515625,-0.20889234128296374,-0.27708036337886005,-0.07573476594733074
1760565908414878700,2.269878662109375,-0.13115735969543457,-0.2696725348077714,-0.07796921046851202
1760565908424908000,2.279907958984375,-0.052312955561280246,-0.1931816897961311,-0.09791932615600525
1760565908434937000,2.28993701171875,0.05313537786006927,-0.12315403118291869,-0.05788425288759172
1760565908444966000,2.2999658203125,0.0060655836492776866,-0.0996231891981326,-0.05907592862388119
1760565908454995000,2.309994873046875,-0.10723813944756984,-0.058993072646018115,-0.12384338342025876
1760565908465024000,2.32002392578125,-0.4310071522325277,0.13188317148564382,-0.07581926589300855
1760565908475052800,2.330052734375,-0.9838806887239218,0.33585144557096064,0.3077919837132096
1760565908485081900,2.340081787109375,-1.1842629758149386,0.4076592290665954,0.16431200753403827
1760565908495111000,2.35011083984375,-0.6016226620912551,0.3481351730827242,-0.1718304020738229
1760565908505139700,2.3601396484375,2.6422330026507375,-0.51783170493301,-0.2594066681907512
1760565908515169000,2.3701689453125,1.9421318461507557,-0.423931989681907,0.21464558931374922
1760565908525198000,2.380197998046875,-1.1162392409026622,0.30995047692134975,-0.34016667842157183
1760565908535227000,2.390226806640625,-0.3750286599010229,0.1610751445046626,-0.019415113761648534
1760565908545256000,2.400255859375,0.2573305012375116,-0.0603839470491046,-0.11331325811017304
1760565908555285000,2.410284912109375,0.10605331357717514,-0.06159275201670825,-0.03791322227623314
1760565908565313800,2.420313720703125,-0.10447919612824916,-0.07979434353644028,0.003161185710970312
1760565908575342800,2.4303427734375,-0.010354805275797843,-0.13838895491678266,0.024041239192336795
1760565908585372000,2.440371826171875,0.03124970926642418,-0.15607439534161238,0.061324109409470105
1760565908595400700,2.450400634765625,-0.025457681861519813,-0.12069995256168767,0.06556139991935342
1760565908605429800,2.4604296875,-0.00719955611526966,-0.06536372192278504,0.02802197939157486
1760565908615459000,2.470458984375,0.005671615895628929,-0.034795332284294996,-0.0056371839030645784
1760565908625488000,2.48048779296875,-0.003452186280488968,0.00709905031628441,-0.044323071052227166
1760565908635517000,2.490516845703125,0.0016407529443502424,0.04239503016567323,-0.09413399893101304
1760565908645546000,2.5005458984375,-0.005839373677968979,0.08858944348115473,-0.11141560779530554
1760565908655574800,2.51057470703125,-0.01526362010538578,0.1146454291625414,-0.10661427192818373
1760565908665603800,2.520603759765625,-0.006885667860507965,0.0832285283693578,-0.08426438335627318
1760565908675633000,2.5306328125,-0.008534019589424133,0.05242748075246345,-0.06282525295373052
1760565908685661700,2.54066162109375,-0.0015039748221635817,-0.009738002251437864,-0.015368377387803047
1760565908695690000,2.55068994140625,0.0002922609448432922,-0.04877406367829535,0.029191680758073924
1760565908705719000,2.560718994140625,-0.018261048355698584,-0.053205543319717975,0.06354744801474735
1760565908715747800,2.570747802734375,0.0019429507613182068,-0.07644968645076733,0.04801675620470196
1760565908725777000,2.58077685546875,-0.005984335106611251,-0.0985208174468018,0.03582991319615394
1760565908735806000,2.590805908203125,-0.002838438296318054,-0.0957981875498779,-0.005347882100287825
1760565908745834800,2.600834716796875,0.004496726897358894,-0.05718311888091266,-0.043628732112515715
1760565908755863800,2.61086376953125,-0.0031318682849407193,-0.01029778242551256,-0.08180950101744383
1760565908765892900,2.620892822265625,-0.0014835165560245513,0.019048760100710205,-0.09019192850803956
1760565908775922000,2.630921875,-0.005226210215687752,0.035689938469883054,-0.08412133989008143
1760565908785951000,2.640950927734375,0.00045358898639678955,0.025960854743840172,-0.083081475448329
1760565908795980000,2.65097998046875,-0.004636427628993987,0.0312981332517229,-0.0487241920880042
1760565908806008800,2.6610087890625,0.0008978256225585938,0.009414186257706023,-0.008775792456045746
1760565908816038000,2.671037841796875,0.0000017535656690597534,0.014520838914066553,0.02484557784516364
1760565908826067000,2.68106689453125,0.006291793620586395,-0.0018984403327340258,0.037163664284255354
1760565908836095700,2.691095703125,0.00779693748652935,-0.03749685089453123,0.03626877953745425
1760565908846124800,2.701124755859375,0.00092412910759449,-0.0510829936412163,0.005812814464606344
1760565908856153900,2.71115380859375,-0.008643909704685211,-0.04956567528028972,-0.016623565080668777
1760565908866183000,2.721182861328125,0.0033376199901103973,-0.03553653343988117,-0.05785789460362866
1760565908876212000,2.7312119140625,-0.01416296538710594,-0.01574959069115575,-0.06877796907937153
1760565908886241000,2.741240966796875,-0.008473229312896728,-0.012890972689911722,-0.08037555922418832
1760565908896269800,2.751269775390625,-0.00668283876478672,-0.01960578206211794,-0.08377459054533391
1760565908906299000,2.761298828125,-0.004296235889196396,-0.018259381554997525,-0.049633178425394
1760565908916328000,2.771327880859375,0.006024082595109939,-0.005558602241519838,-0.025057156502921132
1760565908926356700,2.781356689453125,0.006024667116999626,0.006148667956003919,0.007285499099362641
1760565908936385800,2.7913857421875,-0.009382160851359367,0.0025367747688898813,0.026755302190314977
1760565908946414800,2.801414794921875,-0.003832710030674934,-0.007453576542111113,0.045220805343240494
1760565908956444000,2.81144384765625,0.017570143482089042,-0.009495617463462986,0.016041837936267254
1760565908966473000,2.821472900390625,0.19813421590328215,-0.04238401101473718,-0.02446103550698608
1760565908976502000,2.831501953125,0.05292787258923053,-0.011036015305877663,-0.037526798508223144
1760565908986531000,2.841531005859375,-0.038731004932522774,0.005532207424938679,-0.11859181956760585
1760565908996560000,2.851559814453125,0.11468144119083881,-0.06215038589946925,-0.202258711954765
1760565909006589000,2.8615888671875,0.16581892323195932,-0.0960146889779251,-0.10004340563789009
1760565909016618000,2.871617919921875,-0.04791851999461651,-0.0318108502805233,-0.023161643346212804
1760565909026646800,2.881646728515625,-0.22030396213531492,0.00986578878299333,0.013680570431333035
1760565909036675800,2.89167578125,-0.21077859342098235,-0.01629097212543711,0.0446878127113916
1760565909046705000,2.901704833984375,-0.2571048757880926,0.01577527768826112,0.03724787196898833
1760565909056734000,2.91173388671875,-0.07158873391747474,-0.03312584186922759,0.09765143246743828
1760565909066763000,2.921762939453125,-0.031362521991133686,-0.004852929057041183,0.08506280372496694
1760565909076792000,2.9317919921875,-0.029146599507331845,0.033366546156769615,-0.034320476747583595
1760565909086820900,2.94182080078125,-0.010324994659423827,0.06839685167414136,-0.05656253929715603
1760565909096849000,2.951848876953125,0.050667526441812515,0.07667675037202425,-0.05754619830595329
1760565909106877700,2.961877685546875,0.06226385621130466,0.06819407737734727,-0.06711781731480732
1760565909116907000,2.971906982421875,0.0024678514182567596,0.08288385225068777,-0.07843012424483894
1760565909126936000,2.98193603515625,-0.12690613199174403,0.0800945868583396,0.027833069223351777
1760565909136964900,2.99196484375,-0.015974398723244666,0.02729233624304179,-0.0936287528226152
1760565909146994000,3.001993896484375,0.11707213571965694,-0.08063181727388873,-0.10956305699748918
1760565909157023000,3.01202294921875,0.019657471150159835,-0.09281690671676769,0.015433094920776784
1760565909167052000,3.022052001953125,0.03504910154938698,-0.11789908806309103,-0.01537495325906202
1760565909177080800,3.032080810546875,0.08469371468424797,-0.15212464393568223,0.06022420360986143
1760565909187110000,3.04210986328125,0.03243862679004669,-0.1350706880811136,0.025665972583647816
1760565909197139000,3.052138916015625,0.06172551155090332,-0.1190525689471513,0.004517787951696664
1760565909207167700,3.062167724609375,0.05612696089148521,-0.08349677825095131,-0.05020643000239506
1760565909217197000,3.072197021484375,0.05394435615539551,-0.09986793033997528,-0.24780021888604387
1760565909227226000,3.08222607421875,0.09330956733822822,-0.02296816203414928,-0.14091964243818073
1760565909237255000,3.0922548828125,0.13439561096429825,0.0705630075989291,-0.0101303854027763
1760565909247284000,3.102283935546875,0.10429156460165977,0.11338008540184237,0.023782040266878902
1760565909257313000,3.11231298828125,0.03526011395156383,0.08352985853664577,-0.008006452051363884
1760565909267341800,3.122341796875,-0.05774959365725517,0.09844108500778674,0.016683624704834074
1760565909277371000,3.132370849609375,-0.15095511609911919,0.08113101723399013,0.02297421274902299
1760565909287400000,3.14239990234375,-0.1591109500259161,0.05695137421796098,0.09091547527592629
1760565909297428700,3.1524287109375,-0.12200550046861171,0.1329212823617272,0.1666681787387468
1760565909307458000,3.1624580078125,-0.24288287369012831,-0.0509719162158668,0.05662537540029734
1760565909317487000,3.172487060546875,-0.2594751120507717,0.02940607242742553,-0.025251491764932868
1760565909327515600,3.182515625,-0.16437749225199222,-0.02944682456292212,-0.11815861578211187
1760565909337544700,3.192544677734375,-0.2018874309569597,-0.1579605744143948,-0.27336273109521714
1760565909347573500,3.202573486328125,-0.23783669621646403,-0.19229754563905296,-0.29980200787261124
1760565909357602600,3.2126025390625,-0.25847148796617986,-0.16318804500540718,-0.25321280025299636
1760565909367631600,3.222631591796875,-0.26620354352295394,-0.10769004793353378,-0.2506509138757363
1760565909377660400,3.232660400390625,-0.2015384713888168,-0.13891794722694903,-0.49674884062223135
1760565909387689500,3.242689453125,-0.18713351393938063,-0.1576504307529889,-0.21529789747633038
1760565909397718800,3.25271875,-0.12666940062642096,-0.13198222967963666,-0.13997881792411207
1760565909407747600,3.26274755859375,-0.11639058319628239,-0.06538434458570555,-0.17369849750064312
1760565909417776600,3.272776611328125,-0.13717793515920637,0.03441094977632165,0.06621281303279102
1760565909427805700,3.2828056640625,-0.13182839082479475,0.16760366949057207,0.1637137676462531
1760565909437834500,3.29283447265625,-0.15047347006201744,0.14158957758899776,0.10530454103648662
1760565909447863600,3.302863525390625,-0.10812135202288627,0.05344267197726294,-0.06287073606327176
1760565909457892600,3.312892578125,-0.14971183803975582,0.05460990739203989,-0.16159253770858048
1760565909467921700,3.322921630859375,-0.15339549498856067,0.1996429947647266,-0.12016864043027162
1760565909477950500,3.332950439453125,-0.14850070868432522,0.24567898894837126,-0.0609976356677711
1760565909487979800,3.342979736328125,-0.14546587103307246,0.10385114562408998,-0.0776622086122632
1760565909498008800,3.3530087890625,-0.23917700490951538,0.0770191797346808,-0.1325653267972171
1760565909508037600,3.36303759765625,-0.27612054190337654,0.04934513699794188,-0.1102075106471777
1760565909518066700,3.373066650390625,-0.19174129999578,0.040232678199745714,-0.04666428214982152
1760565909528095700,3.383095703125,-0.06767886699736118,-0.007322744103521108,-0.032588410524278875
1760565909538124500,3.39312451171875,0.0751718531012535,-0.057625894212350245,-0.1604591497644782
1760565909548153600,3.403153564453125,0.10407996767759323,-0.03206831390662119,-0.09478475445732473
1760565909558182700,3.4131826171875,0.08316928159594536,0.008926800032984464,-0.05784706268236041
1760565909568211500,3.42321142578125,0.09520400278270244,0.042127405905164776,-0.11152020068094133
1760565909578239700,3.43323974609375,0.12336276029646395,0.007236454059556126,-0.1925724901229143
1760565909588268500,3.4432685546875,0.16339374191164968,-0.07089116184106097,-0.28534955801963807
1760565909598297600,3.453297607421875,0.16122575022280214,-0.0999153496782761,-0.27240736659914255
1760565909608326700,3.46332666015625,0.12390519661009311,-0.09074958979026414,-0.24377573087662457
1760565909618355500,3.47335546875,0.026509236741065978,-0.09765093927709385,-0.21393998006135223
1760565909628384500,3.483384521484375,-0.08796236109137534,-0.10459609137303195,-0.17214403460025787
1760565909638413600,3.49341357421875,-0.3032055327057838,-0.08246771833100355,-0.10098667783737182
1760565909648442600,3.503442626953125,-1.2514888383477925,0.2704258008604869,0.08127718423902988
1760565909658471700,3.5134716796875,-0.31561259433627126,0.09319560383604839,-0.14004647633284328
1760565909668500700,3.523500732421875,-0.06863222219944,-0.22038572213463484,-0.0989680314913392
1760565909678529500,3.533529541015625,-0.09562368949949741,0.13665539085613562,-0.11859539976418018
1760565909688558600,3.54355859375,-0.048045361244678494,0.03163820626051165,-0.20780863769948482
1760565909698587600,3.553587646484375,-0.22770985447764394,0.11145404924270697,-0.08281330776512623
1760565909708616700,3.56361669921875,-0.20838672984838486,0.14430175915714352,-0.2253682597875595
1760565909718645500,3.5736455078125,0.9643968205749988,-0.4384233102405444,-0.22065116813778876
1760565909728674600,3.583674560546875,-0.40617023261785506,0.2406077683649957,-0.14131751918196678
1760565909738703600,3.59370361328125,0.005990764847397804,0.06674577826517633,-0.12826426860243081
1760565909748732700,3.603732666015625,-0.13945815505087375,-0.021601202796190044,-0.12184855634123086
1760565909758761700,3.61376171875,-0.17185703435242175,-0.022128813716734294,-0.10600859765261411
1760565909768790800,3.623790771484375,-0.1354477503657341,-0.04246323199709877,-0.08998772943913937
1760565909778819600,3.633819580078125,-0.09442308153808117,-0.012087575893645407,-0.10757248596847056
1760565909788848600,3.6438486328125,-0.09933481897711753,-0.07694111866294406,-0.14452186818122864
1760565909798877700,3.653877685546875,-0.0776034641623497,-0.00601214442049968,-0.1431909118384123
1760565909808906500,3.663906494140625,-0.054642859813570976,-0.024195685401954686,-0.22877689918726682
1760565909818935600,3.673935546875,-0.01934650550484657,-0.043073372385231776,-0.24749650496542452
1760565909828964600,3.683964599609375,0.03312310192286968,-0.04171934569408185,-0.22676000640690325
1760565909838993700,3.69399365234375,0.10010054265260696,-0.0684606878577033,-0.23053952494561672
1760565909849022700,3.704022705078125,0.10896598615348338,-0.058363574536866504,-0.17696517114639282
1760565909859051800,3.7140517578125,0.08989712854623794,-0.053261652854550624,-0.1702852549910545
1760565909869080600,3.72408056640625,0.03263385710120201,-0.037590678074269086,-0.12930559434890745
1760565909879109600,3.734109619140625,-0.009704816934466362,-0.03325113733288599,-0.07447977918386459
1760565909889138700,3.744138671875,-0.044319034197926516,-0.019118135542492382,-0.06910217779874801
1760565909899167500,3.75416748046875,-0.06371931571662426,-0.0026393515106639823,-0.0817424636632204
1760565909909196500,3.764196533203125,-0.09409984093308449,0.0207137387374416,-0.1086474217236042
1760565909919225600,3.7742255859375,-0.14380056816935538,0.0075177575022564265,-0.16337737529873847
1760565909929254700,3.784254638671875,-0.15603227323293686,0.012523610957042547,-0.193796478959918
1760565909939283700,3.79428369140625,-0.15493863277733325,0.02382171469014138,-0.16272914052307605
1760565909949312800,3.804312744140625,-0.2228846262782812,0.019220833298563954,-0.1951870565354824
1760565909959341600,3.814341552734375,-0.2955956422239542,-0.02102555376612581,-0.1973614779651165
1760565909969370600,3.82437060546875,-0.348825128108263,-0.018359591668104986,-0.12796294756829737
1760565909979399700,3.834399658203125,-0.3765805655181408,-0.03733548632035963,-0.111684012940526
1760565909989428500,3.844428466796875,-0.35535365309417244,-0.03832461152214091,-0.09567454290390014
1760565909999457500,3.85445751953125,-0.32515023801028725,-0.016812272036203647,-0.08727905500233173
1760565910009486600,3.864486572265625,-0.306674085599184,0.0029014981617452576,-0.11940145545005798
1760565910019515400,3.874515380859375,-0.23197978688180446,0.00930569808166474,-0.13137071018517016
1760565910029544700,3.884544677734375,-0.19031272849738598,0.04422431881891098,-0.14034896641075612
1760565910039573800,3.89457373046875,-0.135709031650424,0.03722990248745773,-0.18154314658641815
1760565910049602600,3.9046025390625,-0.10286182405948638,0.03692390756149543,-0.1940846482515335
1760565910059631600,3.914631591796875,-0.05016951379179954,0.022729359726037363,-0.1850344958335161
1760565910069660700,3.92466064453125,0.016669395250082014,-0.0033777139676589283,-0.17087679114341736
1760565910079689500,3.934689453125,0.06866203281581401,-0.005619631692531402,-0.14869067829847335
1760565910089718500,3.944718505859375,0.09383271442949771,-0.03236008166112005,-0.1124596734881401
1760565910099747600,3.95474755859375,0.09905658655762672,-0.0512117437205743,-0.09731354228258132
1760565910109776600,3.964776611328125,0.133586632668972,-0.06658091112624388,-0.0830757580935955
1760565910119805700,3.9748056640625,0.12277414675354957,-0.06082102785869501,-0.07225333530604838
1760565910129834800,3.984834716796875,0.09126958594322204,-0.03782959454681258,-0.0700917733579874
1760565910139863800,3.99486376953125,0.06902502090930938,-0.012071159048384288,-0.0860907220005989
1760565910149892600,4.004892578125,0.06286182210445404,-0.008271127444604644,-0.14698679699003694
1760565910159920600,4.014920654296875,0.07114215919375419,-0.00817841850547411,-0.18737141434848306
1760565910169949400,4.024949462890625,0.05774433296024799,0.020498241956392303,-0.17171674909889698
1760565910179978500,4.034978515625,0.08432663493752479,0.02875502007359173,-0.16287293290793894
1760565910190007800,4.0450078125,0.1281844813644886,0.010712762142793507,-0.1390028124988079
1760565910200036600,4.05503662109375,0.11436287676095962,0.0037284025561180895,-0.11240531295239925
1760565910210065700,4.065065673828125,0.04314414519965648,-0.008814111176683218,-0.09041326137483119
1760565910220094700,4.0750947265625,0.04425473679006099,0.014090288309962487,0.010094693034887314
1760565910230123500,4.08512353515625,0.05046820447742939,0.0344774825237575,0.07565057652890682
1760565910240152600,4.095152587890625,0.015324410381913183,0.03977557294885628,0.056278352060914034
1760565910250181600,4.105181640625,-0.04646013787984848,0.0370362978778081,0.04063946890234947
1760565910260210400,4.11521044921875,-0.1092050556063652,0.039297297045774754,0.010813070437312125
1760565910270239500,4.125239501953125,-0.17420564330518246,0.05630421715453267,-0.02095218713581562
1760565910280268500,4.1352685546875,-0.22053134115040302,0.0427732843269594,-0.07847381725609302
1760565910290297600,4.145297607421875,-0.20719605875909328,0.041627543791360216,-0.08064940772950649
1760565910300326700,4.15532666015625,-0.19104221181571482,0.027715114532643928,-0.08401508477032184
1760565910310355700,4.165355712890625,-0.17122224358022212,0.0028822192141844424,-0.06633212856352329
1760565910320384500,4.175384521484375,-0.115195820453763,-0.00934612085277622,-0.04819733693599701
1760565910330414000,4.1854140625,-0.07285480833053588,-0.008853058943338692,-0.0379541753411293
1760565910340443100,4.195443115234375,-0.04187865530848503,-0.011919783861975883,-0.030970892325043676
1760565910350472000,4.205471923828125,-0.022130583265423772,-0.004748639563382312,-0.03131342215240002
1760565910360501000,4.2155009765625,0.007495324191451072,-0.006486385752569185,-0.027693478089570997
1760565910370530000,4.225530029296875,0.05245324081480503,-0.007219931041373638,-0.03035422173142433
1760565910380558800,4.235558837890625,0.015685644909739494,0.002184508713397372,-0.02496025373339653
1760565910390588200,4.245588134765625,0.005279986229538917,0.028197383907542097,-0.012572481325268744
1760565910400617200,4.2556171875,0.061007134148478505,0.009447692376730264,-0.036786885127425194
1760565910410646000,4.26564599609375,0.13276947106719017,-0.003679770506142813,-0.028038346004486084
1760565910420675000,4.275675048828125,0.13755904343128203,-0.02778918669914128,-0.015375263786315917
1760565910430704000,4.2857041015625,0.08058686388731003,-0.032512527709896676,-0.006813771668076515
1760565910440733000,4.29573291015625,0.02276069786250591,-0.03578059416171163,0.001592237627506256
1760565910450762000,4.305761962890625,0.007051087555289268,-0.04157983219211455,-0.0033270985960960385
1760565910460791000,4.315791015625,0.007956511962413787,-0.018732642214599762,-0.006281272226572036
1760565910470819800,4.32581982421875,-0.02716477804034948,0.0023370794868154917,-0.003435819667577743
1760565910480849200,4.33584912109375,-0.030930852575600146,0.017113530279899713,-0.014152443993091582
1760565910490878200,4.345878173828125,-0.06938041021823883,0.03245057067287853,-0.015824176597595215
1760565910500907000,4.355906982421875,-0.11129355231821536,0.045845759708015243,-0.02655366040468216
1760565910510936000,4.36593603515625,-0.12208967162072658,0.041070613161497745,-0.03193476892113686
1760565910520965000,4.375965087890625,-0.12872048793733118,0.04236702334731817,-0.025320903739333152
1760565910530994000,4.385993896484375,-0.18607728288471698,0.02704822528886143,-0.022713351589441298
1760565910541023000,4.39602294921875,-0.24440818356126545,0.009862817082839318,-0.03195230457782745
1760565910551052000,4.406052001953125,-0.24721593445837498,-0.013762629541463683,-0.024298574954271315
1760565910561080800,4.416080810546875,-0.21719752055257557,-0.030212609887204596,-0.028364509218931196
1760565910571110000,4.42610986328125,-0.2262581943646073,-0.023624351787404158,-0.019027941074967383
1760565910581139200,4.43613916015625,-0.23505232619494199,-0.031735353341919834,-0.025321488261222838
1760565910591168000,4.44616796875,-0.24161066179722546,-0.01278688441106351,-0.04042553389072418
1760565910601197000,4.456197021484375,-0.23399814096689223,-0.011237271215731743,-0.056153848898410796
1760565910611226000,4.46622607421875,-0.2497296708449721,-0.002661234834320203,-0.07048749467730522
1760565910621255000,4.4762548828125,-0.2538476275578141,0.0002792964319931343,-0.07163315758109093
1760565910631284000,4.486283935546875,-0.2573202721044421,0.00783839972479036,-0.07597966235280036
1760565910641313000,4.49631298828125,-0.25988369285166263,-0.019710680908430367,-0.07861760964095592
1760565910651342000,4.506342041015625,-0.2470171970158815,-0.035658598050125875,-0.07669979332089423
1760565910661371000,4.516370849609375,-0.20311755727380512,-0.05100942151492927,-0.05671966608762741
1760565910671400200,4.526400146484375,-0.155522862406075,-0.053794855548953635,-0.04984627318680286
1760565910681429200,4.53642919921875,-0.14849427894353864,-0.04423695453819818,-0.04246259267628193
1760565910691458000,4.5464580078125,-0.15296937853097914,-0.028116553206695243,-0.04705576568543911
1760565910701487000,4.556487060546875,-0.17475626292526722,-0.02397382052891189,-0.04849602762162685
1760565910711516200,4.56651611328125,-0.2105170198753476,-0.017394472962996222,-0.05389934796988964
1760565910721545000,4.576544921875,-0.23071663507819173,-0.002566331369403633,-0.069747489964962
1760565910731574000,4.586573974609375,-0.24851357305347918,-0.00007519054981021327,-0.08035597774088382
1760565910741603000,4.59660302734375,-0.2515489952266216,0.02311413952623261,-0.07719020718634129
1760565910751632000,4.6066318359375,-0.22837810912802814,0.016084340212499954,-0.06794716254472732
1760565910761661000,4.616660888671875,-0.1752618743598461,0.01609708096306422,-0.05527005180120468
1760565910771690200,4.626690185546875,-0.11776172541901468,0.010082501415238948,-0.04975216516256332
1760565910781719000,4.636718994140625,-0.06581015051603317,-0.008093739892460872,-0.04875730890631676
1760565910791748000,4.646748046875,0.03800159467943012,-0.01936450466912938,-0.021361936980485916
1760565910801777200,4.656777099609375,0.03650521864183247,-0.024352414900204164,-0.015919453665614126
1760565910811806000,4.666805908203125,-0.006538461858034134,-0.003167452196619706,0.017532149559259413
1760565910821835000,4.6768349609375,0.06631568888537585,0.0018625501749673274,0.052661915129423136
1760565910831864000,4.686864013671875,0.08553487821612507,-0.006420087042218074,0.040977907076478005
1760565910841892900,4.696892822265625,0.09827394827995449,-0.007398722816025838,0.017815642675757408
1760565910851922000,4.706921875,0.12523852757308632,-0.004180816790513927,-0.024945640686154364
1760565910861951200,4.716951171875,0.14049977305829525,0.009199031399129308,-0.02511573655605316
1760565910871980000,4.72697998046875,0.045692076116800304,0.024435663603711872,-0.006989712756872176
1760565910882009000,4.737009033203125,-0.056448438797658304,0.01526580749589484,0.002501169165968895
1760565910892038100,4.7470380859375,-0.14670096578598021,-0.010170698005211306,-0.01421440331339836
1760565910902067000,4.75706689453125,-0.1663420885895379,-0.0190127629137889,-0.005057283389568328
1760565910912096000,4.767095947265625,-0.1987888986860402,0.0013537041766307084,0.01656242774426937
1760565910922125000,4.777125,-0.1500549706553109,0.00712452211343625,0.012222352713346481
1760565910932153900,4.78715380859375,-0.10107786325216293,0.02603212988176383,-0.003553893089294433
1760565910942182100,4.79718212890625,-0.14410221799705178,0.03147502875516656,-0.008445756784081458
1760565910952211200,4.807211181640625,-0.14736607863120735,0.010230385453329653,-0.02941138792335987
1760565910962240000,4.817239990234375,-0.034012159717082976,0.005591760159027763,-0.0063075757116079325
1760565910972269000,4.82726904296875,-0.02224924120903015,-0.0042338370358280366,0.0018237082958221435
1760565910982298000,4.837298095703125,-0.0854723709065467,0.0056058503331732935,0.0139729957729578
1760565910992327000,4.847326904296875,-0.11849668863005935,-0.015334906659752595,0.006880407163500786
1760565911002356000,4.85735595703125,-0.14420388827323913,-0.0383093226214638,0.037412908071279526
1760565911012385000,4.867385009765625,-0.19532851083278654,-0.06399905510661191,0.017312953850626943
1760565911022414000,4.8774140625,-0.26748086998239157,-0.08508430317072198,0.013004443001747131
1760565911032443100,4.887443115234375,-0.3544223635934293,-0.05835129957718309,0.056605099797248835
1760565911042472200,4.89747216796875,-0.40352117941379545,-0.017045585318445227,0.060385787379741665
1760565911052501000,4.9075009765625,-0.38813539423346516,0.004375196576653979,0.05149520943760871
1760565911062530000,4.917530029296875,-0.344755686712265,0.02794301413754001,0.049207975283265114
1760565911072559000,4.92755908203125,-0.3143570413172245,0.037595676193083634,0.02431318800151348
1760565911082588000,4.937587890625,-0.3124140905559063,0.024040919531928374,-0.011005962660908699
1760565911092617000,4.947616943359375,-0.2978526273705065,0.033973298144573345,0.012639701342582702
1760565911102646000,4.95764599609375,-0.27058541186898943,0.018819353525317273,0.00511339749097824
1760565911112675000,4.967675048828125,-0.22849442898407576,0.009125788637227378,-0.006464812099933624
1760565911122704100,4.9777041015625,-0.22148469635248183,-0.011877215370372868,-0.018123685711622237
1760565911132733200,4.987733154296875,-0.27371172719597814,-0.03293825600841083,-0.020099369698762894
1760565911142762000,4.997761962890625,-0.2868038484811783,-0.036401000215532255,-0.008126023310422897
1760565911152791000,5.007791015625,-0.21438626252412796,-0.04992546676970087,-0.023393735069036484
1760565911162820000,5.017820068359375,-0.14422025488615034,-0.04950014032998588,-0.03188216195106506
1760565911172849000,5.027848876953125,-0.08047025177031755,-0.04651245258897543,-0.046188335201144216
1760565911182878000,5.0378779296875,-0.05772884313017129,-0.029317202267306854,-0.035951018825173375
1760565911192907000,5.047906982421875,-0.10132716183811426,-0.010970722384168765,-0.01465571734011173
1760565911202935800,5.057935791015625,-0.1418327752277255,-0.0002586555027635768,0.010221534284949303
1760565911212965000,5.067965087890625,-0.18031155896484852,0.02324556790315546,0.010309797090291976
1760565911222994200,5.077994140625,-0.16246230628043412,0.02838103566204663,0.006083119305968284
1760565911233023000,5.08802294921875,-0.14568331317603586,0.027070217924960886,-0.006137479841709137
1760565911243052000,5.098052001953125,-0.13583236576914787,0.006802460256195627,-0.019987726017832753
1760565911253081000,5.1080810546875,-0.05775573113709688,-0.0027192871623672545,-0.028808161333203314
1760565911263110000,5.11810986328125,0.07547200509160756,0.005193239527847618,-0.04079728981256485
1760565911273139000,5.128138916015625,0.13197481355816126,-0.022865309014450757,-0.060844637063145635
1760565911283168000,5.13816796875,0.21592443187683819,-0.0192134491431294,-0.04993921216726303
1760565911293197000,5.148197021484375,0.3312497239291668,-0.02432819834097754,-0.05181085125803947
1760565911303226000,5.15822607421875,0.29677696096301076,-0.023558602207968942,-0.03806406545639038
1760565911313255200,5.168255126953125,0.19065818093419074,-0.0024794505245052277,-0.0027700492352247235
1760565911323284200,5.1782841796875,0.11947101355493069,0.034533142250729724,0.019788988575339315
1760565911333312500,5.1883125,0.10953004977703094,0.06281072210487909,0.026153847432136536
1760565911343341600,5.198341552734375,-0.11546002434790134,0.09569107391359284,0.03776888190209866
1760565911353370600,5.20837060546875,-0.42321547544300553,0.07684699237239546,0.09186053757369518
1760565911363399400,5.2183994140625,-0.6120113696366548,0.0541502539910376,0.1109866783261299
1760565911373428500,5.228428466796875,-0.7696200984060764,0.03541503051863983,0.13556874639689923
1760565911383457500,5.23845751953125,-0.84934245441854,0.030518910773843524,0.14137947850227356
1760565911393486800,5.24848681640625,-0.7766273468196392,0.05503111934564076,0.12321896791160106
1760565911403515600,5.258515625,-0.7544166840553284,0.046228804208850484,0.13437690626382828
1760565911413544700,5.268544677734375,-0.8553945940643548,0.00440524465504568,0.08235913425683974
1760565911423573800,5.27857373046875,-0.5084387669593096,-0.06275058028232305,-0.016382395002245902
1760565911433602600,5.2886025390625,-0.26245325107872486,-0.061693006653944026,-0.08665244753658771
1760565911443631600,5.298631591796875,-0.28889702136814593,-0.0360950874879607,-0.08984101444482803
1760565911453660700,5.30866064453125,-0.256119371882081,-0.07140918523264117,-0.10862520989179611
1760565911463689500,5.318689453125,-0.18196984756588935,-0.09893793774717487,-0.14127484908401966
1760565911473718500,5.328718505859375,-0.10847148063480853,-0.028229286016302646,-0.12031623220741748
1760565911483747800,5.338747802734375,0.020908932515978813,0.07879840043480507,-0.10100012184083461
1760565911493776600,5.348776611328125,0.2809644748032093,0.15758143890369683,-0.07622165441513061
1760565911503805700,5.3588056640625,0.4550421078145504,0.2640241353909485,-0.02514671621620655
1760565911513834800,5.368834716796875,0.5307049593031407,0.29326736367316913,0.05940203703939914
1760565911523863600,5.378863525390625,0.5156991133511066,0.20930554346004498,0.11415127983689308
1760565911533892600,5.388892578125,0.2522586048007011,0.17603121476452796,0.22140929302871226
1760565911543921700,5.398921630859375,0.026894436666369436,0.08765235442728735,0.23857144023180007
1760565911553950500,5.408950439453125,-0.04485270268321037,-0.06540699024235364,0.1494721840649843
1760565911563979500,5.4189794921875,-0.17765958315134048,-0.1879919573996216,0.06607435441017151
1760565911574008600,5.429008544921875,-0.2944090627878904,-0.24129978748345746,0.088578447163105
1760565911584037600,5.43903759765625,-0.2768301514774561,-0.23828451304920018,0.07198854689002036
1760565911594066700,5.449066650390625,-0.1805342618048191,-0.22370712164230644,0.051204117536544795
1760565911604095700,5.459095703125,0.12704817081093786,-0.20268618011921644,-0.02283259405493736
1760565911614124500,5.46912451171875,0.2904886744737625,-0.18417466413378714,-0.1140372980684042
1760565911624153600,5.479153564453125,0.23483868344426154,-0.17005451497510074,-0.13454758665561675
1760565911634182700,5.4891826171875,0.14771920291781424,-0.1666863171836361,-0.13956366125196218
1760565911644211500,5.49921142578125,-0.0315361249923706,-0.1752759759504348,-0.13316022395044563
1760565911654240500,5.509240478515625,-0.17018939340114592,-0.1444391948664561,-0.07144757188111543
1760565911664269600,5.51926953125,-0.3454267178416252,-0.04164990632021799,0.059957625095546245
1760565911674298600,5.529298583984375,-0.4513607889533043,0.030268114350549876,0.12171031691431998
1760565911684327700,5.53932763671875,-0.42186932153105733,0.048505590034415944,0.09603285482227801
1760565911694356700,5.549356689453125,-0.40349955210387706,0.03507203490040265,0.0812193165719509
1760565911704385500,5.559385498046875,-0.4433972627282142,-0.04478240479282103,0.005811608888208866
1760565911714414600,5.56941455078125,-0.5087374576449394,-0.12711806684252805,-0.09268442117720842
1760565911724443600,5.579443603515625,-0.5879962877988815,-0.1739242142816074,-0.13747750262767075
1760565911734472400,5.589472412109375,-0.617906272894144,-0.18236823576632885,-0.11176116982996463
1760565911744501500,5.59950146484375,-0.5802981345117092,-0.12968272056560962,-0.010476678089797496
1760565911754530600,5.609530517578125,-0.4387456375300884,-0.012883127310173586,0.12619330754727123
1760565911764559600,5.6195595703125,-0.25266777012348174,0.13358993887091056,0.23530074799805878
1760565911774588700,5.629588623046875,-0.055146717682480806,0.19386879527745768,0.2718457871936262
1760565911784617700,5.63961767578125,0.10669745669960976,0.21687206972418352,0.2421585049383342
1760565911794646500,5.649646484375,0.13380758194327352,0.1850721974954009,0.20325141278654335
1760565911804675600,5.659675537109375,0.1503179872393608,0.12058356877355836,0.10494535233527422
1760565911814704600,5.66970458984375,0.1384405024409294,0.03997600002493709,-0.014981880554556846
1760565911824733700,5.679733642578125,0.033225393253564835,-0.00864919209293439,-0.06383782752975821
1760565911834762500,5.689762451171875,-0.03286474324762821,-0.04073590131441596,-0.07728084461186081
1760565911844791600,5.69979150390625,-0.057762453138828274,-0.0794898898303043,-0.05597883939137682
1760565911854820600,5.709820556640625,-0.1008615901529789,-0.08474753636387176,-0.005315564432996325
1760565911864849700,5.719849609375,3.6619326082527635,0.0870964741101954,-0.2626344163319096
1760565911874878700,5.729878662109375,8.62197844338417,-0.21913298212718219,-3.853693489731848
1760565911884907800,5.73990771484375,-2.5664707824409008,0.45712443051394075,2.675507495743036
1760565911894936600,5.7499365234375,-0.5470329937696456,-0.6942197703111916,-0.23406448420137166
1760565911904965600,5.759965576171875,-0.15567571488022802,-0.031977041726862075,0.13969313285052776
1760565911914994700,5.76999462890625,-0.4941249949246645,-0.2978427818299271,-0.008029924258496612
1760565911925023500,5.7800234375,0.37950492853224277,-0.33822599268257614,-0.28208756054900586
1760565911935052500,5.790052490234375,0.48183425315022466,0.11796021626633592,0.023034181041643023
1760565911945081600,5.80008154296875,-0.011769348248839377,-0.10974908108888193,0.23122339729024097
1760565911955110700,5.810110595703125,0.4420259743750095,0.15167690930133684,0.05460873834826052
1760565911965139700,5.8201396484375,-0.1317091483592987,-0.03383363166226772,0.23528781545124947
1760565911975168800,5.830168701171875,-0.1035106433570385,0.2747702780718915,0.2003682585656643
1760565911985197600,5.840197509765625,-0.026289456510543822,0.04594717425587587,-0.12449360922360792
1760565911995226600,5.8502265625,-0.20076281084120273,0.1398922904181294,0.08209631860218941
1760565912005255700,5.860255615234375,0.0931143370270729,0.12794376794379203,0.0954349802606739
1760565912015284500,5.870284423828125,-0.06310965938568115,0.10148770442837848,0.22781693158131092
1760565912025313500,5.8803134765625,0.12511807953119278,0.028040875888289882,0.11844241942586377
1760565912035342600,5.890342529296875,0.07932663469314574,0.09878195260101928,0.13877685825582592
1760565912045371600,5.90037158203125,-0.07076221996545791,-0.02399194755735807,0.1272701612648554
1760565912055400700,5.910400634765625,0.11058861891925334,-0.018752948642044794,0.028432569486461577
1760565912065429800,5.9204296875,0.013610007679462433,-0.1657663710608147,0.03398861444471404
1760565912075458600,5.93045849609375,-0.0643798254519701,-0.08653019113009795,-0.004186144844535738
1760565912085487600,5.940487548828125,-0.08417875089943408,-0.09528693182580172,0.021499664950743316
1760565912095516700,5.9505166015625,-0.06059738430380821,0.0066167307090363465,0.07903243751954286
1760565912105545500,5.96054541015625,0.10198562574684619,0.3126446113761514,0.2934559815804474
1760565912115574500,5.970574462890625,-0.256969851231575,-0.23330645064199343,0.38671544443294403
1760565912125603600,5.980603515625,0.5793184758245945,-0.3471311106067151,-0.668354603627324
1760565912135632600,5.990632568359375,-0.2718745748966932,-0.14294144885567947,0.021965327967423943
1760565912145661700,6.00066162109375,0.2656055776298046,0.045686797153484074,0.16153843290116637
1760565912155690800,6.010690673828125,0.07376198630332946,0.05633694124720059,0.20465539783295242
1760565912165719600,6.020719482421875,0.06627776802778243,0.034848099084571,0.153831256057322
1760565912175748600,6.03074853515625,0.045474633973836893,-0.028458329548803157,0.08728858088250271
1760565912185777700,6.040777587890625,0.029608371800184247,0.036171666705375534,0.06104075329029001
1760565912195806500,6.050806396484375,0.030800796455144882,-0.029229672397614922,-0.007544031304540112
1760565912205835500,6.06083544921875,0.09065466891527175,-0.004547347406321205,-0.06687109427843242
1760565912215864600,6.070864501953125,0.01957797617316246,-0.045343838067864996,-0.04003893659277819
1760565912225893600,6.0808935546875,-0.0078045362710952755,-0.015844488733261823,0.03748390008141286
1760565912235922700,6.090922607421875,0.051904374760389324,-0.05549267244278453,0.0613819496770855
1760565912245951700,6.10095166015625,0.020782675787806508,-0.0037665072184463497,0.11069547682721168
1760565912255980800,6.110980712890625,-0.005102876096963882,0.015644190662988694,0.1820364099960774
1760565912266009600,6.121009521484375,-0.06899696385860443,0.05630812614466995,0.20890563915595411
1760565912276038700,6.13103857421875,-0.035631285351514816,0.013341539743804604,0.22661332794521002
1760565912286067700,6.141067626953125,0.18748130446374414,0.04626215848918073,0.029956354120792818
1760565912296096500,6.151096435546875,-0.09443652554154396,-0.027315269594057463,0.17098905587885527
1760565912306125600,6.16112548828125,0.08108779914677143,0.010325945649138885,-0.048682627101754763
1760565912316154600,6.171154541015625,-0.006150923845171928,-0.030486524607893077,0.009643980992166325
1760565912326183700,6.18118359375,0.05684592281579971,-0.035346257865056394,-0.07793234905684367
1760565912336212200,6.191212158203125,-0.0033107319831848143,-0.0639725324258674,0.031144787587225435
1760565912346241300,6.2012412109375,0.02557283267378807,-0.09348657700610347,-0.022002883498836306
1760565912356270000,6.21127001953125,0.03514963931441307,-0.06383041140828281,0.08658792179985902
1760565912366299100,6.221299072265625,0.027515783435106276,-0.04122285828087478,0.11591881009922363
1760565912376328200,6.231328125,0.04352291538417339,-0.019199436600797343,0.16647364254733546
1760565912386357000,6.24135693359375,0.017933716097474097,-0.0389715356901288,0.14123626150614582
1760565912396386000,6.251385986328125,0.02571487149298191,-0.010187416244571795,0.14586210380904377
1760565912406415000,6.2614150390625,0.005514964029192924,-0.014860193828580667,0.12858877871590665
1760565912416444200,6.271444091796875,0.04157704201340675,0.019733048003865404,0.04941298720291815
1760565912426473200,6.28147314453125,0.02227496017217636,0.011293590813118499,0.011182059013331308
1760565912436502300,6.291502197265625,0.023619360518455503,0.039520159715949556,-0.02799883597800508
1760565912446531000,6.301531005859375,0.0026700959920883177,0.011202444214234128,-0.0027323932391125705
1760565912456560000,6.31156005859375,0.024064766198396682,0.01129302569918218,-0.02254849815024063
1760565912466589200,6.321589111328125,0.031246202135086058,0.022928373446455225,0.06413560489993542
1760565912476618000,6.331617919921875,0.0053583121627569195,0.03511568452917272,0.087698157197237
1760565912486647000,6.34164697265625,0.04276595953702926,0.012615582964767235,0.14968834756631402
1760565912496676000,6.351676025390625,0.01777414162158966,-0.022893206234951502,0.13287732448899187
1760565912506705200,6.361705078125,0.029745149922370907,-0.047784600549796594,0.18722743930052965
1760565912516734200,6.371734130859375,0.014334814822673797,-0.07156278662546538,0.11716640814067796
1760565912526763300,6.38176318359375,0.03842939163744449,-0.08551005430212244,0.0983829159466084
1760565912536792300,6.391792236328125,0.03453939846158027,-0.10365331236389465,0.017633710237592456
1760565912546821000,6.401821044921875,0.043217210435867306,-0.08296773114185779,0.016046568910311906
1760565912556850200,6.41185009765625,0.02016951232552528,-0.09602188590369187,-0.037672737184399736
1760565912566879200,6.421879150390625,0.03542904077768325,-0.05068513059716206,-0.024653918597428128
1760565912576908000,6.431907958984375,0.0019078794479370116,-0.024779307675920424,0.016199284387147052
1760565912586937000,6.44193701171875,0.04260813862681389,0.04755462315224576,0.059185563010815526
1760565912596966100,6.451966064453125,0.01926174983084202,0.06557748797105159,0.10461528926384635
1760565912606995200,6.4619951171875,0.02659282337129116,0.08758450422231108,0.12877305837478487
1760565912617024300,6.472024169921875,0.00369651643037796,0.07575496391856577,0.18910492361020295
1760565912627053300,6.48205322265625,0.013572013756632804,0.06973443412056658,0.1477736639182549
1760565912637082000,6.49208203125,0.0379629431694746,0.04664701135461218,0.1340495831387583
1760565912647111200,6.502111083984375,0.012077975806593894,0.009330415822745998,0.06403730475776828
1760565912657140200,6.51214013671875,0.03572247076630592,-0.029095778068969957,0.04156366194202565
1760565912667169000,6.5221689453125,0.01148293252289295,-0.09468026203638874,-0.005304481349978595
1760565912677198000,6.532197998046875,0.06340484293997288,-0.11034607886765152,-0.021321796766342594
1760565912687227100,6.54222705078125,0.004443535405397415,-0.1295385811208747,-0.019391002233698964
1760565912697256200,6.552256103515625,0.04155015400648117,-0.09490231642238796,0.013385715670604257
1760565912707285200,6.56228515625,0.009824059399962424,-0.0922259368199855,0.05549174086102284
1760565912717314300,6.572314208984375,0.03556055820286274,-0.05029628654320258,0.1023813105335459
1760565912727343000,6.582343017578125,0.02074526638686657,-0.02539949910060968,0.15705511347465217
1760565912737372200,6.5923720703125,0.026579963889718054,0.0061069602642150125,0.1466235440350603
1760565912747401200,6.602401123046875,0.031066753914952276,0.038801901044533585,0.13883906417130493
1760565912757430000,6.612429931640625,0.012360299879312515,0.05680617076072376,0.11377192513048648
1760565912767459000,6.622458984375,0.03046761897802353,0.06182804491019342,0.07411035221642814
1760565912777488100,6.632488037109375,0.006526771420240402,0.027522825097246094,0.024920314448652787
1760565912787517200,6.64251708984375,0.03465805640518665,0.021032716442563104,0.003209993288759142
1760565912797546200,6.652546142578125,0.009817629659175871,0.0017577589286316652,-0.005998601093981415
1760565912807575300,6.6625751953125,0.02372983515560627,-0.0035348013714014085,0.007785228782426565
1760565912817604000,6.67260400390625,0.01489712488055229,-0.019293980733165517,0.02436330162039958
1760565912827633200,6.682633056640625,0.03703998310565948,-0.02229730215143645,0.07002464467221871
1760565912837662200,6.692662109375,0.014590835410356521,-0.0505334334670566,0.1071843725668732
1760565912847691000,6.70269091796875,0.03718494453430175,-0.04555823430379387,0.12934957048795184
1760565912857720000,6.712719970703125,0.030748774006962774,-0.05035420444263145,0.13504173598126507
1760565912867749000,6.7227490234375,0.018327099329233168,-0.0514244868555339,0.12008843306722118
1760565912877778200,6.732778076171875,0.0229658650457859,-0.04942537632703315,0.0865939040160738
1760565912887807200,6.74280712890625,0.008301379877328872,-0.05674852685593068,0.046202181063406164
1760565912897836300,6.752836181640625,-0.03226210117936134,-0.11185037335022352,-0.06404353356915525
1760565912907865000,6.762864990234375,0.07322188807725906,-0.0417612440404715,-0.05573502983129583
1760565912917894100,6.77289404296875,-0.0008545710027217865,-0.03540594759646337,0.04860203614621423
1760565912927923200,6.782923095703125,0.07725392007231711,-0.0059769326848676425,-0.03925807014708407
1760565912937952300,6.7929521484375,0.023390227937698363,0.0551072944209678,0.16421934254821388
1760565912947981000,6.80298095703125,0.026242694759368895,-0.03566556208045222,0.12978508496154098
1760565912958010000,6.813010009765625,0.034032033461332316,0.041429372604447415,0.12709797390257008
1760565912968039200,6.8230390625,0.060981999707221984,0.028989303753501734,0.16032854565475135
1760565912978068200,6.833068115234375,0.019700141248106956,0.018111330836836713,0.17996804275680334
1760565912988097300,6.84309716796875,-0.002731470790505409,0.05896938580975402,0.13935803741095587
1760565912998126300,6.853126220703125,0.010295184043049811,0.050674216477503066,0.08105470972792245
1760565913008155100,6.863155029296875,0.03633972588181496,-0.024472182522085495,-0.0030392124322708696
1760565913018184200,6.87318408203125,0.005516717594861984,-0.0329884837917285,-0.04822828006353229
1760565913028213200,6.883213134765625,0.02766074486374855,-0.04990195802995003,-0.0869966578643769
1760565913038242000,6.893241943359375,-0.001973345899581909,-0.044686027179681696,-0.046146761081740255
1760565913048271000,6.90327099609375,0.031088965746760365,-0.03586768335669767,-0.01427813446568325
1760565913058300200,6.913300048828125,0.005645312410593032,-0.04189572517429478,0.07363249643845483
1760565913068329200,6.9233291015625,0.021360183414816856,-0.0206325290106819,0.1847963944950141
1760565913078358300,6.933358154296875,0.051284781557321545,0.001387280506780371,0.1336636342947837
1760565913088387300,6.94338720703125,0.028087445843219757,0.03226715409710305,0.24468310977881774
1760565913098416000,6.953416015625,0.006385317122936249,-0.0007678254426748026,0.12554730126131325
1760565913108445200,6.963445068359375,0.01625789183974266,-0.021581303935765753,0.12040507040149531
1760565913118474200,6.97347412109375,0.028373277047276494,-0.04074458237779326,0.03644684865125455
1760565913128503000,6.9835029296875,0.0310614932179451,-0.0560929581571836,-0.01189753207261674
1760565913138532000,6.993531982421875,0.02701718626320362,-0.04859733257163316,-0.0622425211623311
1760565913148561200,7.00356103515625,0.013992284995317458,-0.05186827140054665,-0.0629108488779515
1760565913158590000,7.01358984375,0.036136312264204024,-0.02991637373685371,-0.03206276094866917
1760565913168619300,7.023619384765625,0.01817278555035591,-0.028059338560164904,0.029172994323913005
1760565913178648300,7.0336484375,0.02415244448184967,-0.012723363321332726,0.0988448252367787
1760565913188677000,7.043677001953125,0.005141454541683197,0.016443228661257307,0.15630637746658174
1760565913198706200,7.0537060546875,0.025033903491497037,0.030120869633276013,0.1770521187774837
1760565913208735200,7.0637353515625,0.028019056782126427,0.018247473063139476,0.18366128951786084
1760565913218764000,7.073763916015625,0.029662147814035415,0.009072025181463687,0.14712179414709098
1760565913228793000,7.08379296875,0.010054945546388626,-0.026217475836433003,0.08868783495486714
1760565913238822100,7.093822265625,0.021426818910241126,-0.03351040019042557,0.03834550361311994
1760565913248851000,7.103850830078125,0.02292494851350784,-0.05883085868847556,0.018362992626521735
1760565913258880300,7.11388037109375,0.03474982634186744,-0.06015784667565021,-0.019467720731720328
1760565913268909300,7.123909423828125,0.022637363743782044,-0.03822670410561841,0.012530103488266468
1760565913278938000,7.133938232421875,0.047183775979280466,-0.04591694351439364,-0.05174895586981438
1760565913288967200,7.14396728515625,0.03551905714869499,-0.041287320085521786,0.13574205713719129
1760565913298996200,7.153996337890625,0.02460018824934959,-0.012574442670203278,0.04808298070817254
1760565913309025000,7.16402490234375,0.051993222087621686,0.01376603164152475,0.17305218068743122
1760565913319054000,7.17405419921875,0.034500235494971276,0.03276602069706423,0.12451304457644
1760565913329084000,7.184083984375,0.030178280642628667,0.042664152263524005,0.1358568791558966
1760565913339113000,7.194113037109375,-0.027721535140275953,0.015110322389949579,0.0955588806349784
1760565913349142000,7.20414208984375,0.02840133409798145,0.041252299004490484,0.09207555943070911
1760565913359170800,7.2141708984375,0.014345336216688155,0.03445165396275697,0.026751447999104856
1760565913369199900,7.224199951171875,0.004626490756869316,0.015538096515077631,0.02298127267747186
1760565913379229200,7.234229248046875,0.02723053675293922,0.007901449315418722,-0.008340679841255768
1760565913389258000,7.244258056640625,0.043106151276826855,0.0008640243884787196,-0.03167678470523096
1760565913399287000,7.254287109375,-0.023320085310935972,-0.04656645236511249,0.008554870581207796
1760565913409316000,7.264316162109375,0.015595628538727759,-0.05044701555892825,0.06422348411278798
1760565913419345000,7.274344970703125,0.03655249184966087,-0.05177804496698081,0.05231452646385878
1760565913429374000,7.2843740234375,0.04613514370918274,-0.07213943573595025,0.11214309095279312
1760565913439403000,7.294403076171875,0.01621463721990585,-0.06727476600876543,0.11890229202257468
1760565913449431800,7.304431884765625,-0.011762918508052824,-0.06926468401723541,0.11400210802401416
1760565913459460900,7.3144609375,0.006642506754398345,-0.09496350855771452,0.14287271273471414
1760565913469490200,7.324490234375,0.06440554441511631,-0.06401322519585956,0.12724274353496728
1760565913479519000,7.33451904296875,0.026104747593402863,-0.03267658884794218,0.13863563228738493
1760565913489548000,7.344548095703125,0.00890402194559574,-0.020152565757301635,0.0944120760868769
1760565913499577000,7.3545771484375,0.06174070912003517,-0.03262317131040618,0.03634931569406762
1760565913509606000,7.36460595703125,0.08749708166718483,-0.014890038694284157,0.09588667868408374
1760565913519635000,7.374635009765625,0.1494856280684471,-0.01260391535985982,0.17136643782388417
1760565913529664000,7.3846640625,0.1124380461782217,-0.01847623346784967,0.21519166062287984
1760565913539692800,7.39469287109375,0.1306277828633785,0.011163162516616284,0.27578290744684636
1760565913549721900,7.404721923828125,-0.06906710648536682,0.044586987251997924,0.02825989806698635
1760565913559751000,7.4147509765625,-0.17273206362128257,0.0033251897668000307,0.05654268381921574
1760565913569780200,7.4247802734375,-0.06498012943267822,0.008124456974421627,0.09093118430171161
1760565913579809000,7.43480908203125,0.130466454821825,-0.002583904129534494,0.10925963533781469
1760565913589838000,7.444838134765625,-0.15219313346147537,0.022582560250046662,0.09834776243483648
1760565913599867100,7.4548671875,-0.041323359513282774,-0.01449412443707697,0.05536004990590736
1760565913609896000,7.46489599609375,0.06445873590707779,-0.019685998558322898,0.07375986741147934
1760565913619925000,7.474925048828125,-0.003190320473909378,-0.016418176418391522,0.08919632333312183
1760565913629954000,7.4849541015625,0.06907879692316055,-0.011458410002989694,0.040346258109435436
1760565913639982800,7.49498291015625,0.09257599236667155,-0.015373295591515488,0.05187334030130878
1760565913650012000,7.505011962890625,0.05114391178190708,-0.020636237071419598,0.03780302163371816
1760565913660041200,7.515041259765625,0.08439385495483875,-0.0007658058738801628,-0.011634944746829568
1760565913670070000,7.525070068359375,0.09745967275500297,-0.0021747799059492535,0.03984625443173572
1760565913680099000,7.53509912109375,0.09139467362761497,-0.014745076123997568,0.10620777348652481
1760565913690128100,7.545128173828125,0.06724807436466217,-0.001637257229455281,0.1445018665728159
1760565913700157000,7.555156982421875,0.131307581821084,0.013957994566648266,0.11641020121220498
1760565913710186000,7.56518603515625,0.2847054148972034,-0.0013303261551540343,0.11501244497718288
1760565913720215000,7.575215087890625,0.2450970426082611,-0.12527188185341656,0.23852990264501422
1760565913730243800,7.585243896484375,0.24311551340222357,-0.14202192285796628,0.3504043601237237
1760565913740273000,7.59527294921875,0.22572481814026832,-0.09600972054186277,0.37307657598517835
1760565913750302000,7.605302001953125,0.1512321794748306,-0.11866037302548064,0.4037618197692558
1760565913760331000,7.6153310546875,0.1373515381604433,-0.11235130860968492,0.24013160222060978
1760565913770360000,7.625360107421875,0.016246201401948927,-0.11273753144829533,0.14663045783303677
1760565913780389000,7.63538916015625,-0.03991349271535873,-0.10601042428351938,0.12334489584621042
1760565913790418000,7.64541796875,0.05137362888455391,-0.06089457715209573,0.029625615195930002
1760565913800447000,7.655447021484375,0.034821722534298896,-0.056150414832308884,-0.0070972282519564025
1760565913810476000,7.66547607421875,-0.11234043102264403,-0.04121890362496487,0.001101494968496263
1760565913820504800,7.6755048828125,-0.156086049246788,0.02400057382180821,-0.1490022284656763
1760565913830534000,7.685533935546875,-0.16532500223517416,0.05484219547768589,-0.17582747235335408
1760565913840563000,7.69556298828125,-0.15817103882730008,0.07023973502789158,-0.1426456259805709
1760565913850592000,7.705592041015625,-0.04444704449176788,0.0388560423845658,-0.06293013810031116
1760565913860621000,7.71562109375,0.02459843468368053,0.05130172355896793,-0.03693791097067296
1760565913870650000,7.725650146484375,0.1532236455529928,0.09375893680723384,-0.11927892504893242
1760565913880679000,7.735678955078125,0.2012999864578247,0.09802547167791054,-0.08020772837661207
1760565913890708000,7.7457080078125,0.1873135466814041,0.11764449224751442,-0.0906549611762166
1760565913900737000,7.755737060546875,0.2554045016109943,0.11059437280660495,-0.041180590041726826
1760565913910765800,7.765765869140625,0.3756640351951122,0.06571448072236963,0.10839454294107853
1760565913920795000,7.775794921875,0.5095651406407355,0.04721529449555091,0.18824293648600576
1760565913930824000,7.785823974609375,0.5520692343711853,0.03574262307176832,0.25725634002275766
1760565913940853000,7.79585302734375,0.47664545233547684,0.03886105191982351,0.23912775894030927
1760565913950882000,7.805882080078125,0.3671253394305706,0.04366840653577819,0.2548750709094107
1760565913960911000,7.8159111328125,0.40223289316892624,0.02303666525967419,0.2719203137345612
1760565913970940200,7.825940185546875,0.32973815032243725,-0.03529364861169597,0.3384755835294723
1760565913980969000,7.835968994140625,0.18097616035342215,-0.05994146397861186,0.37190862818434833
1760565913990998000,7.845998046875,0.012250994285941123,-0.050996548333624374,0.30496041354909537
1760565914001027000,7.856027099609375,0.011287702211737633,-0.026151089219469577,0.23985315060541032
1760565914011055900,7.866055908203125,0.037221184891462325,-0.03005766363737639,0.23197920235991476
1760565914021085000,7.8760849609375,0.036461306434869764,-0.021639331433048935,0.2207622272968292
1760565914031114000,7.886114013671875,0.019366379249095917,-0.017094666890869848,0.25897783005312086
1760565914041143000,7.89614306640625,0.025764555853605268,0.02256228921357542,0.31406872589513657
1760565914051172000,7.906172119140625,0.024765023422241208,0.040198757663834836,0.39428339546918867
1760565914061201200,7.916201171875,-0.026268413722515104,0.0026772952011437155,0.4083133821263909
1760565914071230000,7.92622998046875,0.022318214792013166,-0.006515021616942249,0.4168032703131437
1760565914081259000,7.936259033203125,0.055711950349807735,-0.012991711384337395,0.3483051958873868
1760565914091288000,7.9462880859375,0.01049742861688137,-0.04794601992289536,0.30884266180992126
1760565914101316900,7.95631689453125,-0.03324059082269668,-0.05975196928849909,0.31273353176862
1760565914111346000,7.966345947265625,-0.033519992285966874,-0.025597428258927538,0.2225450190603733
1760565914121376000,7.9763759765625,-0.07792378215789794,-0.025897045959741807,0.1835512715384364
1760565914131404000,7.986404052734375,-0.10655015718340873,-0.018352110472903586,0.11737871745079755
1760565914141433900,7.996433837890625,0.06521802984178066,-0.02767406100304797,0.11474719990342855
1760565914151463000,8.006462890625,0.18566519495248793,-0.04003947088231798,0.18699732033908367
1760565914161491000,8.016490966796875,0.22681553598642348,-0.05251751538978423,0.13513035497963427
1760565914171521000,8.02652099609375,0.3622311376482248,-0.046628123991051686,0.12597791123092172
1760565914181550000,8.036550048828126,0.40685996844768524,-0.11990148652722127,0.3331055809289217
1760565914191579100,8.0465791015625,0.4086784160465002,-0.11920430717645213,0.35857378418445585
1760565914201608000,8.05660791015625,0.39050212336480616,-0.0968069536004681,0.31291005737930533
1760565914211637000,8.066636962890625,0.40627778464555736,-0.06168816608204506,0.3134703216105699
1760565914221666000,8.076666015625,0.41346857293248174,-0.0020808808026195036,0.2725102424517274
1760565914231694800,8.08669482421875,0.4342617701143026,0.03971586951771751,0.20943039368242025
1760565914241724000,8.096723876953124,0.3914659999608993,0.002481415294372709,0.2139268283188343
1760565914251753200,8.106753173828125,0.2902747394621372,0.004096663904708112,0.18168284731805323
1760565914261782000,8.116781982421875,0.17967033845186234,-0.011869020647474098,0.12262684723734855
1760565914271811000,8.12681103515625,0.13446692263484,-0.008701420037093338,0.16743045008182525
1760565914281840000,8.136840087890626,0.10728899285197258,-0.05006301207686774,0.22444237711429596
1760565914291869000,8.146868896484374,-0.009184592452645302,-0.08020542682167142,0.3282370981097221
1760565914301898000,8.15689794921875,-0.033524668461084366,-0.037138143967220094,0.30933424471914767
1760565914311927000,8.166927001953125,-0.07673135750293732,-0.013192897653888211,0.31833237468898296
1760565914321955800,8.176955810546875,0.05121054727733135,-0.0016995597565844945,0.29325404753386974
1760565914331984600,8.186984619140626,0.23037293620705604,0.01621397049962543,0.3180196554780006
1760565914342013700,8.197013671875,0.3747545191347599,0.03214544339659624,0.33486908347010613
1760565914352042800,8.207042724609375,0.4712941544353962,0.016477831900469028,0.34404257000684735
1760565914362071600,8.217071533203125,0.5378367108792066,0.008101890662053484,0.3511211300909519
1760565914372100600,8.2271005859375,0.5866103863984347,-0.030664006916515062,0.40716275078654285
1760565914382129700,8.237129638671876,0.5569301184058189,-0.04555389605539385,0.43647476998865603
1760565914392158500,8.247158447265624,0.5228764576345681,-0.04006576523419935,0.40823593297600747
1760565914402187500,8.2571875,0.45688101367950434,-0.07630062423574271,0.47086862249970435
1760565914412216600,8.267216552734375,0.31904256878495213,-0.09287521277526394,0.4765940144091844
1760565914422245400,8.277245361328125,0.25217092651724815,-0.08171279004416428,0.45144320653975006
1760565914432274700,8.287274658203126,0.24401450806856154,-0.08186541418945416,0.42354573031067844
1760565914442303700,8.2973037109375,0.2832154686003923,-0.07653849724538159,0.41221418895721434
1760565914452332800,8.307332763671875,0.3366068670481443,-0.08548910284563899,0.4386684806406498
1760565914462361600,8.317361572265625,0.3256149329125881,-0.057501993838045745,0.45153030030131336
1760565914472390700,8.327390625,0.29216274516582486,-0.035210399908188264,0.4520224677324295
1760565914482419700,8.337419677734376,0.24499387449473142,-0.016511487574898637,0.45969782466590403
1760565914492448500,8.347448486328124,0.16175181992352008,0.002557404281676281,0.4427145411610603
1760565914502477600,8.3574775390625,0.13094459372758865,0.02985433906802209,0.4202969576478004
1760565914512506600,8.367506591796875,0.1846408203408122,0.012085983299824875,0.45492578795850275
1760565914522535700,8.37753564453125,0.19266747492998837,0.025158543651318175,0.42690439308881756
1760565914532564700,8.387564697265624,0.15642127255052327,0.006091572040482424,0.38921559068560596
1760565914542593800,8.39759375,0.12645166622251272,-0.0037818109604995697,0.3484598019272089
1760565914552622600,8.40762255859375,0.06672697310000658,-0.029382543138077016,0.35161212847828865
1760565914562651600,8.417651611328125,-0.006778408093750477,-0.04133239220310934,0.2802010892152786
1760565914572680700,8.4276806640625,0.0279047827526927,-0.07434559031098614,0.2679167771816254
1760565914582709500,8.43770947265625,0.09879822788238525,-0.10145252351714297,0.2529518477618694
1760565914592738600,8.447738525390625,-0.012534633532911538,-0.04144773937819991,0.21653262690305708
1760565914602767600,8.457767578125,-0.1792509439960122,-0.06309405082459561,0.18177111012339592
1760565914612796700,8.467796630859375,-0.2308020483393222,-0.006188906351558398,0.12704057202637195
1760565914622825700,8.47782568359375,-0.30852007879205046,0.03653532151915133,0.041615620458126064
1760565914632854800,8.487854736328124,-0.4247288026154041,0.13168544782330283,-0.11447919661700724
1760565914642883600,8.497883544921875,-0.35226558741834013,0.07092305938324425,0.13564181163311004
1760565914652912600,8.50791259765625,-0.23148703492879866,0.06557616366364527,0.14221183767318724
1760565914662941700,8.517941650390625,0.049822892311215394,0.07397335489853285,0.1519219153046608
1760565914672970500,8.527970458984376,0.12648173256721346,0.04204481478878297,0.150470547452569
1760565914682999600,8.53799951171875,0.3536059691766277,0.05430337589324917,0.11822422836422919
1760565914693028600,8.548028564453125,0.5065321296203881,-0.01561035118382424,0.12619009267687797
1760565914703057400,8.558057373046875,0.5603280172158033,0.03533253758366918,0.026203531792759895
1760565914713086700,8.568086669921875,0.47546654474921524,-0.11524201594935729,0.10609656819701194
1760565914723115800,8.57811572265625,-0.19146423662006853,-0.052736153975990595,-0.10002630837261677
1760565914733144600,8.58814453125,-0.46316396640650925,-0.11856142442934214,-0.0630026918798685
1760565914743173600,8.598173583984375,-0.12981105965301393,-0.15206232842234893,0.1023164651364088
1760565914753202700,8.60820263671875,0.057321285242587325,-0.10867923250081948,0.04608955100178718
1760565914763231500,8.6182314453125,0.15985402347818017,-0.08588776504071428,0.05516366881728172
1760565914773260500,8.628260498046876,0.22778993397653102,-0.06060082750306464,0.046748307171463964
1760565914783289600,8.63828955078125,0.23576821937933562,-0.00629868686896516,0.04193184680044651
1760565914793318400,8.648318359375,0.18591449353843925,0.01390874631415354,0.08842822503745555
1760565914803347700,8.65834765625,0.08068184869438409,0.002795683716691565,0.08806699050962924
1760565914813376800,8.668376708984376,-0.09260682589635252,0.02250341918278718,0.09777765266299247
1760565914823405600,8.678405517578126,-0.11394786621928214,0.020149076892272567,0.1143073471814394
1760565914833434600,8.6884345703125,-0.12072335170358418,0.02246198434398975,0.1137929679185152
1760565914843463700,8.698463623046875,-0.11890168923437594,0.010984323934547137,0.1009264720827341
1760565914853492700,8.70849267578125,-0.09184066382944583,0.016793962344666943,0.08720482072234154
1760565914863521500,8.718521484375,-0.07370996385514736,-0.007916574960958678,0.058846156722307204
1760565914873550600,8.728550537109374,-0.00962649100124836,0.00843688849103637,0.06906243031024932
1760565914883579600,8.73857958984375,0.04688216268420219,-0.03803499690882163,0.07322305712103844
1760565914893608400,8.7486083984375,0.16817250062078237,-0.04908764597238041,0.07520224823951721
1760565914903637800,8.7586376953125,0.18312340151518583,-0.06571881897076964,0.051666474351286885
1760565914913666800,8.768666748046876,0.2017854318872094,-0.050280344621976836,0.04683481641113758
1760565914923696600,8.778696533203124,0.18946341819167137,-0.05261907606811728,0.054393853488564486
1760565914933725700,8.7887255859375,0.131811147429049,-0.02332955867546843,0.05610358001589775
1760565914943754800,8.798754638671875,0.15631547408849,-0.008189108292025047,0.04124678714573383
1760565914953783600,8.808783447265625,0.1872203154399991,-0.02100949311389122,0.028143559944629668
1760565914963812600,8.8188125,0.22785160103589294,-0.0052900326995179055,0.030083588096499442
1760565914973841700,8.828841552734374,0.35054011533260343,0.003908515213243663,0.029724107134342193
1760565914983870500,8.838870361328125,0.41127924619466066,-0.0049668149274075405,0.02859831797480583
1760565914993899500,8.8488994140625,0.299963774305582,-0.02349204206106951,0.025583354067802426
1760565915003928600,8.858928466796876,0.15078355892449616,-0.011835106961429118,0.041429157975316044
1760565915013957600,8.86895751953125,0.1975093620032072,-0.021941479017667007,0.04271685969829559
1760565915023986700,8.878986572265624,0.28020605765134093,-0.03907682726208586,0.021501053190231323
1760565915034015700,8.889015625,0.2870475941091776,-0.03638326591273071,0.011457798081636428
1760565915044044800,8.899044921875,0.27664193542897697,-0.019948122376517857,0.027696985220909118
1760565915054073600,8.909073486328126,0.2486123572528362,-0.02432892899333965,0.03283727071881294
1760565915064102700,8.9191025390625,0.24600655866861343,-0.02914359698278131,0.04337093969285488
1760565915074131700,8.929131591796875,0.22359657393991947,-0.029012278203712775,0.0420890831887722
1760565915084160500,8.939160400390625,0.17691490226387976,-0.021839749375975225,0.03431494205594063
1760565915094189600,8.949189453125,0.11291969221532344,-0.03534174837000901,0.04393734140396118
1760565915104218600,8.959218505859376,0.07117489241957664,-0.02256839701066492,0.03061608753800392
1760565915114247700,8.96924755859375,0.07885141839683056,0.00546364940048661,0.020718378379940984
1760565915124276700,8.97927685546875,0.08795710039436817,0.01706863511718111,0.006447860965132713
1760565915134305800,8.989305908203125,0.09591010522544384,0.0280896971658105,-0.021810265269875524
1760565915144334600,8.99933447265625,0.13666764754951,0.029215664421860126,-0.07614683561325072
1760565915154363600,9.00936376953125,0.24336978042423724,0.04408200143850408,-0.17240180875360964
1760565915164392700,9.019392822265624,0.23383915101289748,0.03972349113516975,-0.172608144980669
1760565915174421500,9.02942138671875,0.15330430957376956,0.02108585998546332,-0.12728139504492283
1760565915184450600,9.039450439453125,0.07167641220092773,-0.02055108638848178,-0.04997720609009266
1760565915194479600,9.049479736328125,-0.053044192445278165,-0.0355387116972357,0.012847206613421439
1760565915204508400,9.05950830078125,-0.21575930444300173,-0.07960402686242014,0.058794718796014785
1760565915214537700,9.069537841796874,-0.3569511514186859,-0.07324527351942378,0.09414192650914191
1760565915224566800,9.07956689453125,-0.38108196859061716,-0.03747050631029997,0.06543079580962657
1760565915234595600,9.089595703125,-0.32122517352104185,-0.05299530723567586,0.06649754825830459
1760565915244624600,9.099624755859375,-0.21978198408782482,-0.048102269930532196,0.089742230245471
1760565915254653700,9.10965380859375,-0.20592939982414243,-0.02677383792742621,0.08089373787939548
1760565915264682500,9.1196826171875,-0.24325930578708646,-0.0028213684305083003,0.14254793775975702
1760565915274711600,9.129711669921875,-0.16829261986911295,0.002315035476721823,0.17375731501579283
1760565915284740600,9.13974072265625,-0.028145898032188414,0.012908284584316424,0.1909913584113121
1760565915294769400,9.149769287109375,0.04509294117987156,0.018392488149064593,0.18022154259383677
1760565915304798700,9.159798828125,0.07644786438643932,0.02301300125629641,0.09793722713887691
1760565915314827800,9.169827880859375,0.20087620808780193,0.004267845478351228,-0.03181903358697891
1760565915324856600,9.179856689453125,0.27561083881556986,0.005779049192322418,-0.06261573838889599
1760565915334885600,9.1898857421875,0.31243688690960403,-0.045808341173920776,-0.07847323273420334
1760565915344914700,9.199914794921876,0.29857436577379703,-0.07172554400570225,-0.05766600702702999
1760565915354943500,9.209943603515624,0.22015374000966548,-0.09159648894318378,-0.03688157767355442
1760565915364972500,9.21997265625,0.20209902788102627,-0.1448816962032579,0.01783376285433769
1760565915375001600,9.230001708984375,0.2896118916392326,-0.18922338062440974,0.07881108638644219
1760565915385030400,9.240030517578125,0.43941140796244144,-0.1989044148244895,0.1022989294797182
1760565915395059700,9.250059814453126,0.5293044448554516,-0.15524400893207638,0.09615034372210501
1760565915405088800,9.2600888671875,0.5355985765635967,-0.09063491390203125,0.029487668029963967
1760565915415117600,9.27011767578125,0.5093681567639112,0.005051757831079885,-0.08688771759718655
1760565915425146600,9.280146728515625,0.46576516188085076,0.07991340333884582,-0.20579642109423874
1760565915435175700,9.29017578125,0.3279261324644089,0.10909652633112854,-0.23145459396392107
1760565915445204700,9.300204833984376,0.1249772097557783,0.059726903345901514,-0.14811697006374597
1760565915455233500,9.310233642578124,-0.02143967839181423,0.05159195237692911,-0.09349252268970012
1760565915465262600,9.3202626953125,-0.04363514358699321,0.02108373652703594,-0.08612345522642136
1760565915475291600,9.330291748046875,-0.06374035850465297,0.016634547698986715,-0.11506371850669384
1760565915485320400,9.340320556640625,-0.5649006588935852,-0.0458575460439315,-0.2916892824351787
1760565915495349800,9.350349853515626,-0.6614560762852429,0.03668705061529763,0.10180500848293304
1760565915505379600,9.360379638671875,-0.34724925709366794,0.07324601787151769,0.07061813531965017
1760565915515407600,9.37040771484375,-0.1319049631923437,-0.09992930513839236,0.029614509280025958
1760565915525437700,9.380437744140625,0.07472995455265044,-0.0783229832090903,0.03718056062012911
1760565915535466800,9.390466796875,0.08086100465357303,-0.1518321546619758,0.030541853258013722
1760565915545495600,9.40049560546875,0.05421732787787914,-0.12169350277683696,-0.03915215295404195
1760565915555524600,9.410524658203125,0.09998188470900059,-0.09529794641016051,-0.075239949901402
1760565915565553700,9.4205537109375,0.013494856867194175,-0.0903589191053994,-0.06716346482113003
1760565915575582500,9.43058251953125,-0.2106973448783159,-0.029168519078195093,-0.06973112335205078
1760565915585611500,9.440611572265626,-0.2847217815101147,-0.00459512750422582,-0.07632657609432936
1760565915595640600,9.450640625,-0.14761457349956034,0.004307707131281495,-0.09855711260288953
1760565915605669600,9.460669677734375,0.062379007023572915,0.016138119651284068,-0.07210632805079221
1760565915615698700,9.47069873046875,0.2549877375036478,0.04176984290545806,-0.12219459329992532
1760565915625727700,9.480727783203125,0.43547640660107134,0.009355565105378627,-0.1557585708580911
1760565915635756800,9.4907568359375,0.4970470198512077,0.0021137042183429003,-0.1712935552507639
1760565915645785600,9.50078564453125,0.3449918335556984,0.007295161976851522,-0.2760914619393647
1760565915655814700,9.510814697265625,0.1862900488525629,0.016399857593700287,-0.19259967039078474
1760565915665843700,9.52084375,0.2805184846013784,-0.037476182565838095,-0.23812376952953634
1760565915675872500,9.53087255859375,0.26366496495604513,-0.049154308867268265,-0.33420031736306843
1760565915685901600,9.540901611328126,-0.17199790412783622,-0.1170407542007044,-0.4500669862831011
1760565915695930600,9.5509306640625,-1.2530278844833374,0.09881046630945056,0.016541631551412864
1760565915705959700,9.560959716796875,-4.156527558776736,0.23712792689260093,2.877204664824903
1760565915715988700,9.57098876953125,0.050036242800951,-0.2447602118693292,-0.19279015146158635
1760565915726017800,9.581017822265625,-0.01753448764681816,0.2051973226899281,-0.9399962465509771
1760565915736046600,9.591046630859376,-0.6999626248121261,0.1979082981929183,0.40605928305666894
1760565915746075600,9.60107568359375,0.04774257890582084,-0.016422580882161853,0.14879098773463628
1760565915756104700,9.611104736328125,0.22780688511133193,-0.163702296404168,0.2706083360868506
1760565915766133500,9.621133544921875,-0.08724515273272991,-0.010077632302232086,0.14263115906380117
1760565915776162600,9.63116259765625,0.24145547123551367,-0.10716675471179186,0.1632699876678176
1760565915786191600,9.641191650390626,-0.030767478707432745,0.00989025650396943,0.12240739580038934
1760565915796220400,9.651220458984374,-0.15611059916615486,0.018194705121219158,0.08762907401639967
1760565915806249700,9.661249755859375,0.13960253195762634,0.0003041705783456564,-0.2169538479898125
1760565915816278800,9.67127880859375,-0.06263911926448344,0.028188933456316588,-0.21299738371530547
1760565915826307600,9.6813076171875,0.25603169359862804,-0.06266078310701996,-0.1759739316193387
1760565915836336600,9.691336669921874,0.007243979778885841,-0.006911642551980912,-0.16964279236905275
1760565915846365700,9.70136572265625,-0.08472644791007042,-0.02100139657240361,-0.14283174140350893
1760565915856394500,9.71139453125,-0.0008843816190958022,-0.055608782236278055,-0.05704831352010369
1760565915866423600,9.721423583984375,0.014357026654481887,-0.06260521699488163,0.12260874532507732
1760565915876452600,9.73145263671875,0.2892085715353489,-0.08921188622843473,0.20270756996711714
1760565915886481400,9.7414814453125,0.1497726283162832,-0.2045492705773562,0.3757484255429357
1760565915896510700,9.7515107421875,0.016315174984931943,-0.3265193344064057,0.6944092284686862
1760565915906539800,9.761539794921875,-0.10355039084553717,-0.10254537852145731,0.26432587655019013
1760565915916568600,9.771568603515625,-0.17392331923246382,0.2985729044690728,-0.32923217356167733
1760565915926597600,9.78159765625,-0.0477922632664442,0.23998580054175106,-0.5487256230317056
1760565915936626700,9.791626708984374,-0.10827975745499134,0.11435505878068505,-0.5662218975599855
1760565915946655500,9.801655517578125,-0.5089315189123154,0.024080182963237166,-0.42161293561719354
1760565915956684500,9.8116845703125,-0.3061398325920105,0.11428659665435552,-0.07427830179501324
1760565915966713600,9.821713623046875,-0.32980770842731,0.13533862743545322,0.14045492926957084
1760565915976742400,9.831742431640626,0.0401326884239912,-0.0033924919825047252,0.33413872336894274
1760565915986771500,9.841771484375,0.8263204752713441,-0.23274547402467577,0.10393096939465031
1760565915996800800,9.85180078125,0.5018389303028583,-0.24106106509044764,-0.18543233604468404
1760565916006829800,9.861829833984375,-0.06509118859171867,-0.03743438925072551,0.03675029771039262
1760565916016858600,9.871858642578125,-0.42340661410093305,0.09580741203594952,0.08777120416713878
1760565916026888700,9.881888671875,-0.27102760267853737,0.10732943446021527,0.10901899498235433
1760565916036917800,9.891917724609375,0.04537643429636955,0.03347297480646521,-0.006411474477499723
1760565916046946600,9.901946533203125,0.1946206548243761,-0.05429013738576322,-0.21139447856331242
1760565916056975600,9.9119755859375,0.17386662060916422,-0.0883352860569954,-0.30679650640245526
1760565916067004700,9.922004638671876,0.033599487262964245,-0.04691423832289874,-0.24614879841720683
1760565916077033500,9.932033447265624,0.005378185907006263,-0.03942647638339549,0.005870682131685317
1760565916087062500,9.9420625,-0.05870587146878242,0.02545117905549705,0.07306121762283146
1760565916097091600,9.952091552734375,-0.05553425569534302,-0.0016076178597286342,0.04636685183951631
1760565916107120600,9.96212060546875,-0.021365444111824033,-0.005728935573436319,0.028578097170684484
1760565916117149700,9.972149658203126,-0.008618775263428687,-0.04105279894359409,0.0012521737518720328
1760565916127178800,9.9821787109375,0.065883215752244,-0.046860718037374315,-0.036054059074539686
1760565916137207600,9.99220751953125,0.008696516674757003,-0.0270656650474295,-0.013571940691396594
1760565916147236600,10.002236572265625,-0.009884849676489829,-0.007355038937926292,-0.005206573933456093
1760565916157265700,10.012265625,-0.01141629702746868,-0.019974172416515647,-0.06614900881526992
1760565916167294500,10.02229443359375,0.0058902270823717115,-0.02992795914337039,-0.07764631692338735
1760565916177323500,10.032323486328124,-0.040976153510808945,-0.016281674574129282,-0.031469434698019175
1760565916187352600,10.0423525390625,-0.07025894661843776,-0.01698744822330773,-0.011537183460779487
1760565916197381600,10.052381591796875,-0.059679100415110584,0.003557948209904134,0.006068177465163171
1760565916207410700,10.06241064453125,-0.02034954506754875,-0.0007531564548611641,-0.03693984719943255
1760565916217439700,10.072439697265626,0.015827099207043647,-0.018478892357461155,0.014461382078099995
1760565916227468800,10.08246875,0.021309330010414122,0.0006622633010149001,0.05519037416111677
1760565916237497600,10.09249755859375,-0.0038841479569673536,0.004525039676390588,0.029192429676745086
1760565916247526700,10.102526611328125,0.005031564426422119,-0.0010357362559065223,-0.01222869112258777
1760565916257555700,10.1125556640625,0.0015104045629501341,0.001149736290704459,-0.05027695622164756
1760565916267584500,10.12258447265625,0.01876782883405685,0.0025191432140767574,-0.06514213332766666
1760565916277613600,10.132613525390624,0.016265490624308584,-0.00982382193794474,-0.05941182778105139
1760565916287642600,10.142642578125,-0.01946340988278389,-0.02703008227739483,-0.03249563594060018
1760565916297671700,10.152671630859375,-0.018526421293616292,-0.03257261016694828,-0.01469405832281336
1760565916307700700,10.16270068359375,-0.020568156254291533,-0.034095545417908574,0.004435717425122857
1760565916317729800,10.172729736328124,-0.03081833211183548,-0.027057774001918732,0.03283991933362558
1760565916327758600,10.182758544921874,-0.005009352594614029,-0.03922878012051806,0.05601420296570286
1760565916337788000,10.192787841796875,0.028707623568177222,-0.04661717333877459,0.04404777950849384
1760565916347816700,10.202816650390625,0.0296235693693161,-0.04865488971145823,0.022799933894351122
1760565916357845800,10.212845703125,0.02675707402229309,-0.035444073950033635,0.013235329148173332
1760565916367874800,10.222874755859374,0.005309796845912933,-0.007944858057238161,-0.014034023511502892
1760565916377903600,10.232903564453125,0.012564882540702819,0.0004049275390803814,-0.05488395682675764
1760565916387932700,10.2429326171875,0.011579378634691238,-0.0008658413154073059,-0.049050629297085105
1760565916397961700,10.252961669921875,-0.00885083045363426,0.0007827478755265474,-0.050870739130023865
1760565916407990800,10.26299072265625,-0.04211129502058029,0.017919888501521198,-0.03406045583821833
1760565916418019800,10.273019775390624,-0.05990472586452961,0.025384379163291303,-0.0021849428236484524
1760565916428049000,10.283048828125,-0.04623392790853977,0.011883074289001525,0.019790577744226902
1760565916438077700,10.29307763671875,-0.004569207611680031,-0.0012124445296823978,0.016488942382950334
1760565916448106800,10.303106689453125,0.042159225815534586,-0.0197007805689238,0.013207929684594272
1760565916458135800,10.3131357421875,0.042154549640417094,-0.03200777935842052,0.004719429737329483
1760565916468164600,10.32316455078125,0.014146598774194717,-0.024436704783327875,-0.007961242936458439
1760565916478193700,10.333193603515625,-0.02014613144993782,-0.010179485241509974,-0.021435276211332528
1760565916488223700,10.3432236328125,-0.029272856235504147,-0.010620854067150503,-0.037252054953761396
1760565916498251800,10.353251708984375,-0.028210195440053938,-0.021342885220143944,-0.039557263156212864
1760565916508281600,10.363281494140624,0.0005400982260704041,-0.02696021364526823,-0.04930937156481668
1760565916518311000,10.373310791015625,0.02298515426814556,-0.0316535773595795,-0.038191089369542894
1760565916528340000,10.383340087890625,0.013099720069766044,-0.0296731989310123,-0.022099055615998803
1760565916538368800,10.39336865234375,-0.022969372177124022,-0.018748283883370458,0.003543572624679655
1760565916548397800,10.403397705078126,-0.08631225579679012,-0.0067802712572738524,0.023731442590802905
1760565916558427000,10.413427001953124,-1.1892466094464063,0.4233474677922204,0.2933062343788333
1760565916568455700,10.42345556640625,-0.6048480538785457,0.0897922433996573,0.017368337299674748
1760565916578484700,10.433484619140625,-0.47251054448783397,0.1349000624882523,-0.07167001899275928
1760565916588513800,10.443513671875,0.659850394654274,-0.1396108796608634,-0.16691218009507283
1760565916598542600,10.45354248046875,1.359326112732291,-0.3158046097770333,-0.08590927361962385
1760565916608571600,10.463571533203124,0.6599111849308014,-0.15747989649167282,0.010211085956171154
1760565916618601000,10.47360107421875,0.07890460988879203,-0.01370687391636893,-0.053658397087175395
1760565916628629800,10.483629638671875,0.2307014375090599,-0.08297422481472604,-0.0934866226718761
1760565916638658800,10.493658935546875,0.2558785488635301,-0.06851003885818645,-0.05028369648968801
1760565916648687900,10.50368798828125,0.13885317489504814,-0.06969216131484135,-0.08950312425997108
