time,seconds_elapsed,z,y,x
1760565906248623000,0.103623046875,-0.839608907699585,-0.10497740656137466,-0.539340615272522
1760565906258652200,0.113652099609375,-0.61574387550354,-0.35262900590896606,-1.2748154401779175
1760565906268681000,0.123680908203125,-0.47772374749183655,-0.4725363254547119,-1.9838197231292725
1760565906278710000,0.1337099609375,-0.3961138427257538,-0.600059449672699,-2.5456430912017822
1760565906288739300,0.1437392578125,-0.3103252649307251,-0.7801005840301514,-2.9335532188415527
1760565906298768100,0.15376806640625,-0.25238287448883057,-0.9910357594490051,-3.1923890113830566
1760565906308797200,0.163797119140625,-0.2813422679901123,-1.2821539640426636,-3.254878044128418
1760565906318826200,0.173826171875,-0.38117191195487976,-1.4578826427459717,-3.0782837867736816
1760565906328854800,0.183854736328125,-0.48541659116744995,-1.3536289930343628,-2.69357967376709
1760565906338883800,0.1938837890625,-0.5645936727523804,-0.99944669008255,-2.1495652198791504
1760565906348912600,0.20391259765625,-0.5749345421791077,-0.4094406068325043,-1.5053261518478394
1760565906358941700,0.213941650390625,-0.49942758679389954,0.3108925223350525,-0.8294387459754944
1760565906368970800,0.223970703125,-0.346530020236969,1.057644248008728,-0.18907898664474487
1760565906378999800,0.233999755859375,-0.14228154718875885,1.7437424659729004,0.3541960120201111
1760565906389028900,0.24402880859375,0.061690472066402435,2.34993839263916,0.7615424394607544
1760565906399056600,0.254056640625,0.2115422934293747,2.821847438812256,1.0227020978927612
1760565906409085700,0.264085693359375,0.3023470640182495,3.081829309463501,1.1461442708969116
1760565906419114800,0.27411474609375,0.3291427493095398,3.076190948486328,1.172493577003479
1760565906429143800,0.284143798828125,0.33868056535720825,2.8622095584869385,1.120418667793274
1760565906439172900,0.2941728515625,0.43616876006126404,2.6352877616882324,0.9372658133506775
1760565906449202000,0.304201904296875,0.5917772054672241,2.2545735836029053,0.6724079251289368
1760565906459231000,0.31423095703125,0.6882371306419373,1.798509120941162,0.46721965074539185
1760565906469259800,0.324259765625,0.7848532199859619,1.4601801633834839,0.3275984525680542
1760565906479288800,0.334288818359375,0.9158216714859009,1.1694585084915161,0.31663766503334045
1760565906489318000,0.34431787109375,1.0726758241653442,0.8926040530204773,0.4158167243003845
1760565906499346700,0.3543466796875,1.210091471672058,0.6436480283737183,0.5635369420051575
1760565906509375700,0.364375732421875,1.2789400815963745,0.5313991904258728,0.743151068687439
1760565906519404800,0.37440478515625,1.2577719688415527,0.5474340319633484,0.9062446355819702
1760565906529433600,0.38443359375,1.152696967124939,0.5670858025550842,1.0197443962097168
1760565906539463000,0.394462890625,0.977548360824585,0.41586220264434814,1.0363832712173462
1760565906549492000,0.404491943359375,0.7700694799423218,0.1208447739481926,0.936113715171814
1760565906559520800,0.414520751953125,0.5897085070610046,-0.22096236050128937,0.732371985912323
1760565906569549800,0.4245498046875,0.46927833557128906,-0.5846764445304871,0.44511228799819946
1760565906579579000,0.434578857421875,0.42100825905799866,-0.8964117169380188,0.12485411763191223
1760565906589607700,0.444607666015625,0.42106059193611145,-1.0539119243621826,-0.17917056381702423
1760565906599636700,0.45463671875,0.4409906268119812,-1.0827443599700928,-0.43552032113075256
1760565906609665800,0.464665771484375,0.4412132203578949,-0.9707046151161194,-0.6367786526679993
1760565906619694600,0.474694580078125,0.4164857864379883,-0.7113718390464783,-0.7847532033920288
1760565906629724000,0.484723876953125,0.38498103618621826,-0.4191272258758545,-0.8674330115318298
1760565906639751700,0.494751708984375,0.34846723079681396,-0.19584886729717255,-0.8873292207717896
1760565906649780700,0.50478076171875,0.3181532621383667,-0.09213445335626602,-0.845750093460083
1760565906659809800,0.514809814453125,0.3101446032524109,-0.04451154172420502,-0.7518153786659241
1760565906669838800,0.5248388671875,0.31070560216903687,-0.014017732813954353,-0.6256124377250671
1760565906679867600,0.53486767578125,0.33528339862823486,-0.0579974427819252,-0.482241153717041
1760565906689896700,0.544896728515625,0.3666597008705139,-0.14983095228672028,-0.32386934757232666
1760565906699926000,0.554926025390625,0.3891223967075348,-0.27419203519821167,-0.1850675493478775
1760565906709954800,0.564954833984375,0.37935152649879456,-0.4236454963684082,-0.09485398977994919
1760565906719983900,0.57498388671875,0.3360927402973175,-0.5416680574417114,-0.05652577802538872
1760565906730013000,0.585012939453125,0.28767678141593933,-0.6419913172721863,-0.04991251975297928
1760565906740041700,0.595041748046875,0.2555854320526123,-0.7311513423919678,-0.05893770605325699
1760565906750070800,0.60507080078125,0.25915583968162537,-0.80206298828125,-0.06600081920623779
1760565906760099800,0.615099853515625,0.2853464186191559,-0.8661354184150696,-0.04744631424546242
1760565906770128600,0.625128662109375,0.32155731320381165,-0.8340334892272949,0.007208697963505983
1760565906780157700,0.63515771484375,0.3757140338420868,-0.6998940110206604,0.07771242409944534
1760565906790187000,0.64518701171875,0.4551173746585846,-0.5753637552261353,0.13187983632087708
1760565906800215800,0.6552158203125,0.5622239112854004,-0.5099576115608215,0.16333575546741486
1760565906810244900,0.665244873046875,0.6653038263320923,-0.48909756541252136,0.18369148671627045
1760565906820274000,0.67527392578125,0.7353588342666626,-0.4770054817199707,0.21087490022182465
1760565906830302700,0.685302734375,0.770939290523529,-0.41626787185668945,0.24208755791187286
1760565906840331800,0.695331787109375,0.7776283621788025,-0.3456624150276184,0.24609482288360596
1760565906850360800,0.70536083984375,0.7593685984611511,-0.30820703506469727,0.24128106236457825
1760565906860389600,0.7153896484375,0.7202392816543579,-0.3007645606994629,0.2362050861120224
1760565906870418000,0.72541796875,0.6546421647071838,-0.29791519045829773,0.24317696690559387
1760565906880446700,0.73544677734375,0.5658758282661438,-0.3013259172439575,0.24772964417934418
1760565906890475800,0.745475830078125,0.4234105944633484,-0.34906667470932007,0.2599293887615204
1760565906900504800,0.7555048828125,0.25461891293525696,-0.35794350504875183,0.23503363132476807
1760565906910534000,0.765533935546875,0.0818486213684082,-0.38223356008529663,0.1610177755355835
1760565906920562700,0.775562744140625,-0.07170604914426804,-0.3851073980331421,0.04654978960752487
1760565906930591700,0.785591796875,-0.15508948266506195,-0.3643743395805359,-0.10402559489011765
1760565906940620800,0.795620849609375,-0.16619619727134705,-0.3933972120285034,-0.2118932008743286
1760565906950649900,0.80564990234375,-0.11310426145792007,-0.3605141043663025,-0.25766637921333313
1760565906960679000,0.815678955078125,-0.01933303102850914,-0.2468099147081375,-0.24575701355934143
1760565906970708000,0.8257080078125,0.08868268877267838,-0.14331810176372528,-0.19831432402133942
1760565906980736800,0.83573681640625,0.21159130334854126,-0.08579035103321075,-0.13564588129520416
1760565906990765800,0.845765869140625,0.3577271103858948,-0.041313331574201584,-0.0620541051030159
1760565907000795000,0.855794921875,0.455737829208374,-0.009525307454168797,0.025457633659243584
1760565907010823700,0.86582373046875,0.49661755561828613,-0.07383457571268082,0.1292663812637329
1760565907020852700,0.875852783203125,0.3847397565841675,-0.2828005850315094,0.2687070965766907
1760565907030881800,0.8858818359375,0.20071418583393097,-0.5700339674949646,0.4665551483631134
1760565907040910800,0.895910888671875,0.14142104983329773,-1.0072873830795288,0.6524642705917358
1760565907050940000,0.90593994140625,0.15379232168197632,-1.3375279903411865,0.809914231300354
1760565907060969000,0.915968994140625,0.17642706632614136,-1.369026780128479,0.9795504212379456
1760565907070997800,0.925997802734375,0.17306232452392578,-1.2514240741729736,1.1681057214736938
1760565907081026800,0.93602685546875,0.038148183375597,-1.0795047283172607,1.3598523139953613
1760565907091055900,0.946055908203125,-0.14962798357009888,-0.5655122995376587,1.4604912996292114
1760565907101084700,0.956084716796875,-0.26597005128860474,0.6342158913612366,1.1866391897201538
1760565907111113700,0.96611376953125,-0.4848150908946991,2.0581040382385254,0.7499339580535889
1760565907121142800,0.976142822265625,-0.8860445618629456,2.9722414016723633,0.5106856822967529
1760565907131171600,0.986171630859375,-1.1892554759979248,3.0859761238098145,0.46348050236701965
1760565907141200000,0.996199951171875,-1.200138807296753,2.6244874000549316,0.545455276966095
1760565907151229000,1.00622900390625,-0.2981603443622589,2.7213134765625,-0.12221766263246536
1760565907161257700,1.0162578125,-0.16152873635292053,1.2530577182769775,-0.5634831786155701
1760565907171286800,1.026286865234375,-0.4321855306625366,0.5397626161575317,-1.0689696073532104
1760565907181315800,1.03631591796875,-0.703004777431488,0.3101728558540344,-1.219799518585205
1760565907191344600,1.0463447265625,-0.8137944936752319,0.6953253746032715,-1.1772814989089966
1760565907201373700,1.056373779296875,-0.8083059787750244,1.0472512245178223,-1.0161919593811035
1760565907211403000,1.066403076171875,-0.4990503191947937,1.3450124263763428,-1.0330281257629395
1760565907221431800,1.076431884765625,-0.22160087525844574,1.6545332670211792,-1.306524634361267
1760565907231460900,1.0864609375,-0.2668112516403198,1.8037701845169067,-2.045132875442505
1760565907241490000,1.096489990234375,-0.9762328863143921,-3.3350138664245605,-0.7996014952659607
1760565907251518700,1.106518798828125,-0.8301488161087036,-1.0480380058288574,-0.7565082311630249
1760565907261547800,1.1165478515625,-0.48496508598327637,1.7451550960540771,-0.46615737676620483
1760565907271576800,1.126576904296875,-0.581536591053009,3.373051404953003,-1.6574299335479736
1760565907281605600,1.136605712890625,-0.7402961850166321,0.39192691445350647,-3.460817813873291
1760565907291634700,1.146634765625,-0.22066743671894073,-1.6641287803649902,-1.949787974357605
1760565907301664000,1.1566640625,-0.1274235099554062,0.9229722023010254,0.1616334617137909
1760565907311692800,1.16669287109375,-0.18371550738811493,-0.9739272594451904,1.2435853481292725
1760565907321721900,1.176721923828125,-0.005426726303994656,-0.2851073443889618,1.4237958192825317
1760565907331750700,1.186750732421875,0.05510484427213669,0.6675176620483398,0.1187000498175621
1760565907341779500,1.196779541015625,-0.10241500288248062,-0.6385793685913086,-0.33762699365615845
1760565907351808500,1.20680859375,-0.01767927221953869,0.16239316761493683,-0.002608653623610735
1760565907361837600,1.216837646484375,-0.024824000895023346,-0.08759962767362595,0.12417566031217575
1760565907371866400,1.226866455078125,-0.0031510768458247185,0.016652557998895645,-0.04764300212264061
1760565907381895400,1.2368955078125,0.0038410520646721125,-0.015961311757564545,0.01740470714867115
1760565907391924700,1.2469248046875,-0.006404128856956959,0.006645728833973408,-0.0010185092687606812
1760565907401952500,1.256952392578125,-0.0005283961072564125,-0.0005288273096084595,-0.007274274714291096
1760565907411981600,1.266981689453125,0.0054243276827037334,0.018877195194363594,-0.005043551791459322
1760565907422010400,1.27701025390625,-0.012529373168945312,0.005700140260159969,-0.011422887444496155
1760565907432039400,1.287039306640625,-0.05252531170845032,0.009637427516281605,-0.008768100291490555
1760565907442068500,1.297068359375,-0.10086888074874878,-0.0021396041847765446,-0.002958148717880249
1760565907452097500,1.30709765625,-0.13581767678260803,-0.005004946142435074,-0.013294152915477753
1760565907462126600,1.317126708984375,-0.17115063965320587,-0.0016895770095288754,-0.006338508799672127
1760565907472155600,1.32715576171875,-0.218593031167984,0.0020960457623004913,-0.004861885216087103
1760565907482184700,1.337184814453125,-0.2700599431991577,-0.011532681062817574,0.002606683876365423
1760565907492213500,1.347213623046875,-0.3152287006378174,0.0005511045455932617,-0.002848120639100671
1760565907502242600,1.35724267578125,-0.3458271026611328,0.004129061475396156,0.0009980164468288422
1760565907512271600,1.367271728515625,-0.3264889419078827,0.008483778685331345,0.0059126438573002815
1760565907522300400,1.377300537109375,-0.2837159037590027,0.00331165362149477,0.015664871782064438
1760565907532329500,1.38732958984375,-0.23655425012111664,0.0037604598328471184,0.022234881296753883
1760565907542358500,1.397358642578125,-0.1868916153907776,0.008036165498197079,0.027416858822107315
1760565907552387600,1.4073876953125,-0.10829942673444748,0.03607160598039627,0.016434062272310257
1760565907562416600,1.417416748046875,-0.03555465489625931,0.015291760675609112,0.014661462977528572
1760565907572445700,1.42744580078125,0.014641888439655304,0.034249477088451385,0.020357856526970863
1760565907582474500,1.437474609375,0.03470508009195328,0.04925212636590004,0.027062363922595978
1760565907592503600,1.447503662109375,0.09098805487155914,0.06031017005443573,0.030803030356764793
1760565907602532600,1.45753271484375,0.2486754059791565,0.06616806238889694,0.022929660975933075
1760565907612561400,1.4675615234375,0.5394574999809265,0.06314513832330704,0.011435525491833687
1760565907622590500,1.477590576171875,0.9332389235496521,0.037680529057979584,-0.020950110629200935
1760565907632619500,1.48761962890625,1.300856113433838,-0.03578777611255646,-0.07008495926856995
1760565907642648600,1.497648681640625,1.4551074504852295,-0.0987212061882019,-0.11752331256866455
1760565907652677600,1.507677734375,1.358436942100525,-0.059006888419389725,-0.11835935711860657
1760565907662706700,1.517706787109375,1.1211841106414795,0.023437120020389557,-0.09423112124204636
1760565907672735500,1.527735595703125,0.8820702433586121,0.03895554319024086,-0.08881060034036636
1760565907682764500,1.5377646484375,0.6341872215270996,0.0280645489692688,-0.07367479056119919
1760565907692793600,1.547793701171875,0.37257421016693115,0.01531896274536848,0.003523551858961582
1760565907702821400,1.5578212890625,0.1340053230524063,-0.04061194881796837,0.14712119102478027
1760565907712850700,1.5678505859375,-0.10985234379768372,0.027171362191438675,0.21664167940616608
1760565907722879700,1.577879638671875,-0.29587522149086,0.07584302872419357,0.12750887870788574
1760565907732908500,1.587908447265625,-0.3545786440372467,-0.011429840698838234,-0.013605190441012383
1760565907742937600,1.5979375,-0.35915103554725647,-0.09668934345245361,-0.04402328282594681
1760565907752966700,1.607966552734375,-0.3560314178466797,-0.059628263115882874,-0.08227905631065369
1760565907762995500,1.617995361328125,-0.4002116620540619,-0.0007763979956507683,0.02822321653366089
1760565907773024500,1.6280244140625,-0.452096164226532,0.05339236557483673,0.06834372878074646
1760565907783053600,1.638053466796875,-0.40297815203666687,-0.0533740296959877,-0.03167048841714859
1760565907793082400,1.648082275390625,-0.43339598178863525,-0.03382908180356026,-0.024824900552630424
1760565907803111700,1.658111572265625,-0.46204549074172974,0.015516632236540318,0.0124518983066082
1760565907813140700,1.668140625,-0.42969369888305664,0.01325723621994257,0.006247985642403364
1760565907823169500,1.67816943359375,-0.36365848779678345,0.004096228629350662,-0.0131416916847229
1760565907833198600,1.688198486328125,-0.2985157370567322,0.012390018440783024,-0.01529194787144661
1760565907843227600,1.6982275390625,-0.25319406390190125,0.027994278818368912,-0.014757983386516571
1760565907853256400,1.70825634765625,-0.21037067472934723,0.023206941783428192,-0.02090585231781006
1760565907863285500,1.718285400390625,-0.1815936118364334,0.030848082154989243,-0.015817616134881973
1760565907873314600,1.728314453125,-0.16014093160629272,0.03656098246574402,-0.0025287484750151634
1760565907883343400,1.73834326171875,-0.14802728593349457,0.029434893280267715,0.008417642675340176
1760565907893372400,1.748372314453125,-0.1315872073173523,-0.010134334675967693,-0.010754207149147987
1760565907903401700,1.758401611328125,-0.12808115780353546,-0.024382779374718666,-0.008670017123222351
1760565907913430500,1.768430419921875,-0.15410271286964417,-0.008522279560565948,0.008153023198246956
1760565907923459600,1.77845947265625,-0.16396306455135345,-0.009962517768144608,0.011707544326782227
1760565907933488600,1.788488525390625,-0.141788512468338,-0.013500729575753212,-0.003784871893003583
1760565907943517400,1.798517333984375,-0.1288554072380066,-0.010798952542245388,0.004624059423804283
1760565907953546500,1.80854638671875,-0.11166198551654816,-0.013581291772425175,-0.001335701672360301
1760565907963575600,1.818575439453125,-0.0906674861907959,-0.01544523797929287,-0.013568932190537453
1760565907973604400,1.828604248046875,-0.07610510289669037,-0.015505686402320862,-0.016004767268896103
1760565907983633400,1.83863330078125,-0.06372006982564926,-0.0054466612637043,-0.010581506416201591
1760565907993662700,1.848662841796875,-0.045046791434288025,-0.014082428067922592,-0.010785780847072601
1760565908003690500,1.8586904296875,-0.03545808047056198,-0.01064162328839302,-0.008102646097540855
1760565908013719600,1.868719482421875,-0.03369489312171936,-0.011772518046200275,-0.00905754417181015
1760565908023748600,1.87874853515625,-0.04044068232178688,-0.009288321249186993,-0.0026409244164824486
1760565908033777400,1.88877734375,-0.059486981481313705,-0.013620039448142052,-0.00634683296084404
1760565908043806500,1.898806396484375,-0.0836903303861618,-0.011346232146024704,-0.009822257794439793
1760565908053835500,1.90883544921875,-0.09750546514987946,-0.011027378961443901,-0.008890122175216675
1760565908063864600,1.918864501953125,-0.0856488049030304,-0.008128528483211994,-0.011936511844396591
1760565908073893600,1.9288935546875,-0.03425708785653114,-0.002591874450445175,-0.011534316465258598
1760565908083922700,1.938922607421875,0.02790987864136696,-0.0017577726393938065,-0.010247210040688515
1760565908093951500,1.948951416015625,0.07150056958198547,-0.0014904327690601349,-0.01917078346014023
1760565908103980500,1.95898046875,0.0921001210808754,-0.003840938676148653,-0.01912497729063034
1760565908114009600,1.969009521484375,0.10819689929485321,-0.0008645337074995041,-0.02834250219166279
1760565908124038400,1.979038330078125,0.12202296406030655,-0.006740798708051443,-0.028906825929880142
1760565908134067500,1.9890673828125,0.12025542557239532,-0.009268072433769703,-0.02670307084918022
1760565908144096500,1.999096435546875,0.09037821739912033,-0.0019752723164856434,-0.025644997134804726
1760565908154125600,2.00912548828125,0.04351057857275009,-0.006120086647570133,-0.027783533558249474
1760565908164154600,2.019154541015625,-0.027371851727366447,0.0011002756655216217,-0.039339788258075714
1760565908174183700,2.02918359375,-0.10362141579389572,0.003010675311088562,-0.053829632699489594
1760565908184212500,2.03921240234375,-0.1722225844860077,0.00961638055741787,-0.05303574353456497
1760565908194241500,2.049241455078125,-0.20832794904708862,0.007095374166965485,-0.04512317106127739
1760565908204270600,2.0592705078125,-0.22355057299137115,0.011088252067565918,-0.03959045186638832
1760565908214299400,2.06929931640625,-0.23033778369426727,0.008585632778704166,-0.035431671887636185
1760565908224328400,2.079328369140625,-0.2311793565750122,0.00794514361768961,-0.032242801040410995
1760565908234357500,2.089357421875,-0.22863610088825226,0.007858099415898323,-0.03063945844769478
1760565908244386600,2.099386474609375,-0.21578262746334076,0.006191493943333626,-0.031040797010064125
1760565908254415600,2.10941552734375,-0.18365514278411865,0.0086884880438447,-0.03908132389187813
1760565908264444700,2.119444580078125,-0.13027741014957428,0.007641066797077656,-0.05172254890203476
1760565908274473500,2.129473388671875,-0.06684853881597519,0.011045968160033226,-0.05742873623967171
1760565908284502500,2.13950244140625,-0.009289904497563839,0.017549142241477966,-0.06904944777488708
1760565908294531600,2.149531494140625,0.03008619323372841,0.01850166544318199,-0.07888329029083252
1760565908304560400,2.159560302734375,0.05187271162867546,0.022562187165021896,-0.0935429260134697
1760565908314589400,2.16958935546875,0.06089010462164879,0.0270850732922554,-0.12860199809074402
1760565908324618800,2.17961865234375,0.06248560547828674,0.03370010107755661,-0.1657823920249939
1760565908334647800,2.189647705078125,0.05517905205488205,0.04034893587231636,-0.1999468356370926
1760565908344676000,2.199676025390625,0.04597197100520134,0.04262141138315201,-0.22579334676265717
1760565908354705000,2.209704833984375,0.030824080109596252,0.03892422467470169,-0.24320554733276367
1760565908364734000,2.21973388671875,0.01065889187157154,0.018710831180214882,-0.24015463888645172
1760565908374763000,2.229762939453125,-0.014916680753231049,-0.0005468335002660751,-0.19257894158363342
1760565908384791800,2.239791748046875,-0.03341153636574745,-0.01547305192798376,-0.12674479186534882
1760565908394820900,2.24982080078125,-0.041173312813043594,-0.018603194504976273,-0.06054950878024101
1760565908404850000,2.259849853515625,-0.030285246670246124,-0.01527371071279049,-0.005164813715964556
1760565908414878700,2.269878662109375,0.00039666611701250076,-0.00853037741035223,0.031948521733284
1760565908424908000,2.279907958984375,0.035598330199718475,-0.01473181415349245,0.0343906432390213
1760565908434937000,2.28993701171875,0.05125231668353081,-0.0171283520758152,0.009919773787260056
1760565908444966000,2.2999658203125,0.045036762952804565,-0.016007427126169205,0.010936833918094635
1760565908454995000,2.309994873046875,0.0034682361874729395,-0.0026260321028530598,0.05814261734485626
1760565908465024000,2.32002392578125,0.007190003991127014,0.05503486469388008,0.2548607289791107
1760565908475052800,2.330052734375,0.043647006154060364,-0.07846396416425705,0.5600463151931763
1760565908485081900,2.340081787109375,0.016946420073509216,-0.1662425398826599,0.9061899185180664
1760565908495111000,2.35011083984375,-0.02990296296775341,-0.11412190645933151,0.8096769452095032
1760565908505139700,2.3601396484375,0.002993733622133732,0.14436796307563782,0.005982083268463612
1760565908515169000,2.3701689453125,0.002380333375185728,-0.15168169140815735,-0.19742579758167267
1760565908525198000,2.380197998046875,-0.0014213286340236664,0.044498201459646225,0.009242964908480644
1760565908535227000,2.390226806640625,0.0033148869406431913,0.02321341633796692,0.05581910163164139
1760565908545256000,2.400255859375,0.0005902070552110672,-0.025922970846295357,0.0003358665853738785
1760565908555285000,2.410284912109375,0.007932056672871113,0.011362206190824509,-0.009685253724455833
1760565908565313800,2.420313720703125,-0.0000510350801050663,-0.0009067095816135406,0.007753657177090645
1760565908575342800,2.4303427734375,-0.0005190013907849789,-0.006746283732354641,0.0032136673107743263
1760565908585372000,2.440371826171875,-0.0022186310961842537,0.002363857813179493,-0.00626958254724741
1760565908595400700,2.450400634765625,-0.001865373458713293,-0.000018054619431495667,-0.0033478480763733387
1760565908605429800,2.4604296875,-0.0031133308075368404,-0.0014503030106425285,-0.0009579272009432316
1760565908615459000,2.470458984375,-0.0019267462193965912,0.0014298232272267342,0.000055435579270124435
1760565908625488000,2.48048779296875,-0.0008241981267929077,-0.001472489908337593,-0.002314777811989188
1760565908635517000,2.490516845703125,-0.0025208252482116222,-0.0012509580701589584,-0.0008608102798461914
1760565908645546000,2.5005458984375,0.0025186738930642605,0.000879836268723011,-0.0012943728361278772
1760565908655574800,2.51057470703125,0.0012744213454425335,0.0006694840267300606,0.00041587045416235924
1760565908665603800,2.520603759765625,0.0036196010187268257,0.002339819446206093,0.0007615489885210991
1760565908675633000,2.5306328125,0.003718912834301591,0.0032986607402563095,0.003578058909624815
1760565908685661700,2.54066162109375,0.0031223646365106106,0.0016150102019309998,0.0023727118968963623
1760565908695690000,2.55068994140625,0.00460489746183157,-0.000047460198402404785,0.0010461043566465378
1760565908705719000,2.560718994140625,0.002402729354798794,-0.001956148073077202,0.00009721983224153519
1760565908715747800,2.570747802734375,-0.0007934272289276123,0.0006545558571815491,0.002238980494439602
1760565908725777000,2.58077685546875,-0.004526913166046143,0.00045242253690958023,0.0003217710182070732
1760565908735806000,2.590805908203125,-0.0021336982026696205,0.0018887873739004135,0.0006447434425354004
1760565908745834800,2.600834716796875,-0.0005403291434049606,0.0013233982026576996,-0.001418407540768385
1760565908755863800,2.61086376953125,-0.002546221949160099,-0.0005264980718493462,-0.0002982711885124445
1760565908765892900,2.620892822265625,0.001711107324808836,-0.0010407548397779465,-0.0001704394817352295
1760565908775922000,2.630921875,0.0006982339546084404,0.0010226396843791008,0.0018741986714303493
1760565908785951000,2.640950927734375,0.0011965115554630756,0.0007507307454943657,-0.0021820617839694023
1760565908795980000,2.65097998046875,0.0025599519722163677,0.0012229178100824356,0.0001756814308464527
1760565908806008800,2.6610087890625,-0.0006733918562531471,0.0001099826768040657,-0.00018144864588975906
1760565908816038000,2.671037841796875,-0.0003471300005912781,0.002906464971601963,-0.0022562681697309017
1760565908826067000,2.68106689453125,-0.000610782764852047,-0.0007804157212376595,-0.0002008404117077589
1760565908836095700,2.691095703125,0.00045109307393431664,-0.000011401250958442688,-0.00045554619282484055
1760565908846124800,2.701124755859375,-0.0030078208073973656,0.0017406921833753586,-0.000870733056217432
1760565908856153900,2.71115380859375,-0.002836798317730427,0.002544027753174305,-0.0005337547045201063
1760565908866183000,2.721182861328125,-0.0012341076508164406,0.00037381798028945923,0.0003964873030781746
1760565908876212000,2.7312119140625,0.00002007279545068741,0.00003112480044364929,0.0007090847939252853
1760565908886241000,2.741240966796875,0.0010970551520586014,-0.002612595446407795,-0.002199353650212288
1760565908896269800,2.751269775390625,0.0006861528381705284,0.00037703197449445724,-0.0008656037971377373
1760565908906299000,2.761298828125,0.0023290570825338364,0.0004079248756170273,0.00006863288581371307
1760565908916328000,2.771327880859375,0.0011537307873368263,0.00029625091701745987,0.0005271034315228462
1760565908926356700,2.781356689453125,-0.0007027587853372097,0.001373765990138054,0.0002426779828965664
1760565908936385800,2.7913857421875,0.00248434254899621,0.000006618909537792206,-0.0004367625806480646
1760565908946414800,2.801414794921875,-0.001231832429766655,-0.00035743508487939835,0.001135301310569048
1760565908956444000,2.81144384765625,-0.005026497878134251,0.016934890300035477,-0.012591848149895668
1760565908966473000,2.821472900390625,-0.0031630834564566612,0.008840213529765606,-0.07031507045030594
1760565908976502000,2.831501953125,-0.008491052314639091,0.021840371191501617,-0.06730926036834717
1760565908986531000,2.841531005859375,-0.02677924558520317,0.01771140843629837,-0.07991611957550049
1760565908996560000,2.851559814453125,-0.048353854566812515,0.03791019320487976,-0.11764660477638245
1760565909006589000,2.8615888671875,-0.04382781311869621,0.025013303384184837,-0.16772149503231049
1760565909016618000,2.871617919921875,-0.035293951630592346,0.029939983040094376,-0.1257587969303131
1760565909026646800,2.881646728515625,-0.02069263905286789,0.013659547083079815,-0.0708707869052887
1760565909036675800,2.89167578125,-0.017250092700123787,-0.005550449714064598,0.0006082192994654179
1760565909046705000,2.901704833984375,-0.01420370303094387,-0.016478464007377625,0.06067661941051483
1760565909056734000,2.91173388671875,0.008138549514114857,-0.02153123915195465,0.0730804055929184
1760565909066763000,2.921762939453125,0.018207695335149765,-0.018731724470853806,0.08065736293792725
1760565909076792000,2.9317919921875,0.0037198089994490147,-0.021735932677984238,0.08345496654510498
1760565909086820900,2.94182080078125,-0.0012975861318409443,-0.016250086948275566,0.08584915101528168
1760565909096849000,2.951848876953125,-0.00661265105009079,-0.016518842428922653,0.06477969884872437
1760565909106877700,2.961877685546875,-0.0010455790907144547,-0.013785107061266899,0.05462426692247391
1760565909116907000,2.971906982421875,0.004376398865133524,-0.010011548176407814,0.05074919015169144
1760565909126936000,2.98193603515625,0.0348067432641983,-0.007943603210151196,0.09396456927061081
1760565909136964900,2.99196484375,0.018251031637191772,0.0066719455644488335,0.07211912423372269
1760565909146994000,3.001993896484375,0.01035582460463047,0.011651790700852871,0.051098261028528214
1760565909157023000,3.01202294921875,0.009426793083548546,0.014696764759719372,0.03578777611255646
1760565909167052000,3.022052001953125,-0.007840344682335854,0.021299805492162704,0.014033215120434761
1760565909177080800,3.032080810546875,-0.0043272231705486774,0.017102645710110664,-0.006978574208915234
1760565909187110000,3.04210986328125,-0.01473725400865078,0.018869120627641678,-0.020087985321879387
1760565909197139000,3.052138916015625,-0.02038685977458954,0.01739715412259102,-0.04167286679148674
1760565909207167700,3.062167724609375,-0.05445161834359169,0.025816205888986588,-0.06136587634682655
1760565909217197000,3.072197021484375,-0.09766310453414917,0.032196421176195145,-0.08567752689123154
1760565909227226000,3.08222607421875,-0.09447689354419708,0.05406630039215088,-0.12272316217422485
1760565909237255000,3.0922548828125,-0.06089300662279129,0.06154164299368858,-0.1642855852842331
1760565909247284000,3.102283935546875,-0.011194691061973572,0.10263076424598694,-0.20540693402290344
1760565909257313000,3.11231298828125,0.027370665222406387,0.13853397965431213,-0.23423568904399872
1760565909267341800,3.122341796875,0.05958985537290573,0.19347979128360748,-0.24280600249767303
1760565909277371000,3.132370849609375,0.08612369745969772,0.2406093180179596,-0.23454251885414124
1760565909287400000,3.14239990234375,0.12002947181463242,0.28630223870277405,-0.23773059248924255
1760565909297428700,3.1524287109375,0.16381756961345673,0.32104986906051636,-0.23823121190071106
1760565909307458000,3.1624580078125,0.18497692048549652,0.36084550619125366,-0.2131040096282959
1760565909317487000,3.172487060546875,0.18413396179676056,0.3629037141799927,-0.15884201228618622
1760565909327515600,3.182515625,0.14700976014137268,0.3348363935947418,-0.10121546685695648
1760565909337544700,3.192544677734375,0.08657024055719376,0.3251883089542389,-0.03782878816127777
1760565909347573500,3.202573486328125,0.021018128842115402,0.33796775341033936,0.026893749833106995
1760565909357602600,3.2126025390625,-0.03447824716567993,0.38336092233657837,0.07587280869483948
1760565909367631600,3.222631591796875,-0.08021590858697891,0.41935381293296814,0.10916765034198761
1760565909377660400,3.232660400390625,-0.14221081137657166,0.46642032265663147,0.12608782947063446
1760565909387689500,3.242689453125,-0.19292566180229187,0.5353417992591858,0.11630230396986008
1760565909397718800,3.25271875,-0.22208108007907867,0.605143666267395,0.08947747945785522
1760565909407747600,3.26274755859375,-0.22098492085933685,0.6805561184883118,0.06645365059375763
1760565909417776600,3.272776611328125,-0.1952284872531891,0.7336184978485107,0.06022224947810173
1760565909427805700,3.2828056640625,-0.14566414058208466,0.7584450244903564,0.078092060983181
1760565909437834500,3.29283447265625,-0.09482591599225998,0.820461630821228,0.06300780922174454
1760565909447863600,3.302863525390625,-0.06057233363389969,0.8949987888336182,0.027695361524820328
1760565909457892600,3.312892578125,-0.020963845774531364,0.9842904210090637,-0.009698418900370598
1760565909467921700,3.322921630859375,0.038903214037418365,1.0560189485549927,-0.03510231524705887
1760565909477950500,3.332950439453125,0.10564539581537247,1.1258022785186768,-0.0661909282207489
1760565909487979800,3.342979736328125,0.14707060158252716,1.1844661235809326,-0.087906613945961
1760565909498008800,3.3530087890625,0.17098702490329742,1.2325623035430908,-0.0646214634180069
1760565909508037600,3.36303759765625,0.18690021336078644,1.2642308473587036,-0.02132538892328739
1760565909518066700,3.373066650390625,0.1983148157596588,1.276279330253601,0.027806278318166733
1760565909528095700,3.383095703125,0.20413407683372498,1.2462862730026245,0.05918577313423157
1760565909538124500,3.39312451171875,0.1854444295167923,1.1814219951629639,0.08904702216386795
1760565909548153600,3.403153564453125,0.1735512912273407,1.1002781391143799,0.12257169187068939
1760565909558182700,3.4131826171875,0.15745985507965088,1.030042052268982,0.15413345396518707
1760565909568211500,3.42321142578125,0.14286360144615173,0.9692724943161011,0.16357435286045074
1760565909578239700,3.43323974609375,0.11846157163381577,0.9302579760551453,0.14303043484687805
1760565909588268500,3.4432685546875,0.09421934187412262,0.9167768359184265,0.08534476906061172
1760565909598297600,3.453297607421875,0.07448287308216095,0.9283453822135925,0.020044472068548203
1760565909608326700,3.46332666015625,0.05217837542295456,0.963728666305542,-0.04953007772564888
1760565909618355500,3.47335546875,0.03813307359814644,1.0153111219406128,-0.10682805627584457
1760565909628384500,3.483384521484375,0.028086300939321518,1.080500602722168,-0.14091864228248596
1760565909638413600,3.49341357421875,0.03593197464942932,1.0370275974273682,-0.07933040708303452
1760565909648442600,3.503442626953125,0.07559496909379959,1.2494412660598755,0.20886170864105225
1760565909658471700,3.5134716796875,0.05273398011922836,1.2815443277359009,0.21049366891384125
1760565909668500700,3.523500732421875,0.0450611487030983,1.2827425003051758,0.19729237258434296
1760565909678529500,3.533529541015625,0.06148507818579674,1.251510739326477,0.20004040002822876
1760565909688558600,3.54355859375,0.06556397676467896,1.2001838684082031,0.21537303924560547
1760565909698587600,3.553587646484375,0.07985902577638626,1.2228773832321167,0.24719169735908508
1760565909708616700,3.56361669921875,0.07661495357751846,1.1977788209915161,0.2379535585641861
1760565909718645500,3.5736455078125,0.004477357491850853,1.094461441040039,-0.0432419590651989
1760565909728674600,3.583674560546875,0.027906516566872597,1.0987536907196045,-0.012475525960326195
1760565909738703600,3.59370361328125,0.03161891549825668,1.101190209388733,-0.010218052193522453
1760565909748732700,3.603732666015625,0.03510446101427078,1.1282460689544678,-0.020214760676026344
1760565909758761700,3.61376171875,0.03925376012921333,1.1632212400436401,-0.018404411152005196
1760565909768790800,3.623790771484375,0.04085272178053856,1.1828460693359375,-0.019801504909992218
1760565909778819600,3.633819580078125,0.037045687437057495,1.2006226778030396,-0.021217606961727142
1760565909788848600,3.6438486328125,0.03504165634512901,1.2124571800231934,-0.019017569720745087
1760565909798877700,3.653877685546875,0.03466758131980896,1.209583044052124,-0.020656559616327286
1760565909808906500,3.663906494140625,0.03329844772815704,1.1921446323394775,-0.020648837089538574
1760565909818935600,3.673935546875,0.022408008575439453,1.1608140468597412,-0.014421782456338406
1760565909828964600,3.683964599609375,0.008520156145095825,1.1176766157150269,-0.0046559711918234825
1760565909838993700,3.69399365234375,-0.012895001098513603,1.0575685501098633,0.010163169354200363
1760565909849022700,3.704022705078125,-0.029684366658329964,1.000732183456421,0.015822919085621834
1760565909859051800,3.7140517578125,-0.03878453001379967,0.9543978571891785,0.024640347808599472
1760565909869080600,3.72408056640625,-0.04877617955207825,0.9254900217056274,0.031343258917331696
1760565909879109600,3.734109619140625,-0.055321600288152695,0.9227474331855774,0.03581462800502777
1760565909889138700,3.744138671875,-0.05879862233996391,0.9192914962768555,0.04382328689098358
1760565909899167500,3.75416748046875,-0.06047193706035614,0.922950029373169,0.04216403514146805
1760565909909196500,3.764196533203125,-0.062433622777462006,0.9338844418525696,0.046966247260570526
1760565909919225600,3.7742255859375,-0.06995756179094315,0.9433532357215881,0.05095544829964638
1760565909929254700,3.784254638671875,-0.07101590186357498,0.9508242011070251,0.053417008370161057
1760565909939283700,3.79428369140625,-0.07067595422267914,0.964209794998169,0.05067313462495804
1760565909949312800,3.804312744140625,-0.07379558682441711,0.9935785531997681,0.0559278167784214
1760565909959341600,3.814341552734375,-0.07525761425495148,1.0468659400939941,0.05785442143678665
1760565909969370600,3.82437060546875,-0.074144147336483,1.1196213960647583,0.05621817708015442
1760565909979399700,3.834399658203125,-0.07407935708761215,1.205005407333374,0.05597946420311928
1760565909989428500,3.844428466796875,-0.07008408010005951,1.2881767749786377,0.05530568212270737
1760565909999457500,3.85445751953125,-0.06714311242103577,1.3633911609649658,0.054090581834316254
1760565910009486600,3.864486572265625,-0.06368925422430038,1.4292588233947754,0.05402693152427673
1760565910019515400,3.874515380859375,-0.05667177587747574,1.4691177606582642,0.045926228165626526
1760565910029544700,3.884544677734375,-0.05036567896604538,1.4927318096160889,0.04385348781943321
1760565910039573800,3.89457373046875,-0.047925300896167755,1.5007015466690063,0.042078472673892975
1760565910049602600,3.9046025390625,-0.04338967055082321,1.494805097579956,0.03842994198203087
1760565910059631600,3.914631591796875,-0.03843822330236435,1.4707965850830078,0.03763224929571152
1760565910069660700,3.92466064453125,-0.03796045109629631,1.4330854415893555,0.03732944279909134
1760565910079689500,3.934689453125,-0.037693507969379425,1.3895509243011475,0.036446794867515564
1760565910089718500,3.944718505859375,-0.035987488925457,1.3484264612197876,0.032830219715833664
1760565910099747600,3.95474755859375,-0.0356760174036026,1.2971035242080688,0.03551683574914932
1760565910109776600,3.964776611328125,-0.04168517515063286,1.2430964708328247,0.04286130145192146
1760565910119805700,3.9748056640625,-0.04121847078204155,1.1953948736190796,0.04939880967140198
1760565910129834800,3.984834716796875,-0.04234924539923668,1.1572545766830444,0.05025821179151535
1760565910139863800,3.99486376953125,-0.04110191762447357,1.1173086166381836,0.05221519246697426
1760565910149892600,4.004892578125,-0.05078490823507309,1.0514219999313354,0.0631496012210846
1760565910159920600,4.014920654296875,-0.05968112498521805,0.9803836941719055,0.0739925280213356
1760565910169949400,4.024949462890625,-0.06648044288158417,0.9063467979431152,0.08678928762674332
1760565910179978500,4.034978515625,-0.07824931293725967,0.8224881887435913,0.10332680493593216
1760565910190007800,4.0450078125,-0.08606462180614471,0.7401240468025208,0.11958087235689163
1760565910200036600,4.05503662109375,-0.09506075829267502,0.666464626789093,0.13329805433750153
1760565910210065700,4.065065673828125,-0.10177778452634811,0.6267287135124207,0.14114665985107422
1760565910220094700,4.0750947265625,-0.09654077142477036,0.6146420836448669,0.13749712705612183
1760565910230123500,4.08512353515625,-0.08293388783931732,0.6211116909980774,0.12339676171541214
1760565910240152600,4.095152587890625,-0.0742187649011612,0.6400614976882935,0.1077691838145256
1760565910250181600,4.105181640625,-0.06533285975456238,0.6672086715698242,0.09373193234205246
1760565910260210400,4.11521044921875,-0.05096171796321869,0.7060528993606567,0.08006974309682846
1760565910270239500,4.125239501953125,-0.042695265263319016,0.7441850900650024,0.06765195727348328
1760565910280268500,4.1352685546875,-0.03861929476261139,0.7743218541145325,0.06488176435232162
1760565910290297600,4.145297607421875,-0.03708265349268913,0.8025516271591187,0.052602190524339676
1760565910300326700,4.15532666015625,-0.03135080263018608,0.8221485018730164,0.052433475852012634
1760565910310355700,4.165355712890625,-0.03362487629055977,0.8396608829498291,0.05133545398712158
1760565910320384500,4.175384521484375,-0.033047065138816833,0.8454684019088745,0.05331503972411156
1760565910330414000,4.1854140625,-0.029249664396047592,0.849985659122467,0.05297442153096199
1760565910340443100,4.195443115234375,-0.030600421130657196,0.8479099869728088,0.05045586824417114
1760565910350472000,4.205471923828125,-0.03014928102493286,0.8356333374977112,0.056127868592739105
1760565910360501000,4.2155009765625,-0.029310505837202072,0.8183155655860901,0.054193634539842606
1760565910370530000,4.225530029296875,-0.022929571568965912,0.8000316619873047,0.03958539664745331
1760565910380558800,4.235558837890625,-0.012670520693063736,0.7881673574447632,0.019936122000217438
1760565910390588200,4.245588134765625,-0.003800329752266407,0.7740161418914795,0.005242397543042898
1760565910400617200,4.2556171875,0.0004766099154949188,0.7300207614898682,-0.00481894426047802
1760565910410646000,4.26564599609375,0.005222362466156483,0.6748113036155701,-0.015451082959771156
1760565910420675000,4.275675048828125,0.004661259241402149,0.6304986476898193,-0.016926169395446777
1760565910430704000,4.2857041015625,0.0053827096708118916,0.6026906967163086,-0.02030891552567482
1760565910440733000,4.29573291015625,0.00406291987746954,0.5851188898086548,-0.011959759518504143
1760565910450762000,4.305761962890625,0.0037065886426717043,0.5740417838096619,-0.006501344032585621
1760565910460791000,4.315791015625,-0.0033458243124186993,0.5660122036933899,0.005155913531780243
1760565910470819800,4.32581982421875,-0.004082454834133387,0.5581425428390503,0.012614628300070763
1760565910480849200,4.33584912109375,-0.006028305739164352,0.5560109615325928,0.016781391575932503
1760565910490878200,4.345878173828125,-0.005959063768386841,0.5602176785469055,0.012644702568650246
1760565910500907000,4.355906982421875,-0.003165044356137514,0.5657099485397339,0.009064525365829468
1760565910510936000,4.36593603515625,-0.002122949343174696,0.5785428881645203,0.0047304960899055
1760565910520965000,4.375965087890625,0.0024687019176781178,0.5981853008270264,-0.0048105898313224316
1760565910530994000,4.385993896484375,0.009540725499391556,0.636316180229187,-0.0202806256711483
1760565910541023000,4.39602294921875,0.01107349805533886,0.6813094019889832,-0.030826253816485405
1760565910551052000,4.406052001953125,0.01465917844325304,0.7271900773048401,-0.033720310777425766
1760565910561080800,4.416080810546875,0.014619497582316399,0.7703726887702942,-0.03661356866359711
1760565910571110000,4.42610986328125,0.01577770709991455,0.8161793351173401,-0.038890838623046875
1760565910581139200,4.43613916015625,0.014785313978791237,0.8608226776123047,-0.03855625540018082
1760565910591168000,4.44616796875,0.01555257011204958,0.9006763696670532,-0.03641187772154808
1760565910601197000,4.456197021484375,0.013993266969919205,0.938380777835846,-0.03924553841352463
1760565910611226000,4.46622607421875,0.014898741617798805,0.9681681990623474,-0.04106288030743599
1760565910621255000,4.4762548828125,0.015204276889562607,0.9952860474586487,-0.04398660361766815
1760565910631284000,4.486283935546875,0.014373904094099998,1.0227292776107788,-0.04050718620419502
1760565910641313000,4.49631298828125,0.010818097740411758,1.0499801635742188,-0.03930600360035896
1760565910651342000,4.506342041015625,0.009091837331652641,1.0814452171325684,-0.03789905458688736
1760565910661371000,4.516370849609375,0.006130908150225878,1.1043421030044556,-0.0317959226667881
1760565910671400200,4.526400146484375,0.006000146735459566,1.1232086420059204,-0.028162039816379547
1760565910681429200,4.53642919921875,0.0015718932263553143,1.1426873207092285,-0.021210838109254837
1760565910691458000,4.5464580078125,0.00343397562392056,1.168502926826477,-0.016748977825045586
1760565910701487000,4.556487060546875,-0.00036318181082606316,1.1928343772888184,-0.010639481246471405
1760565910711516200,4.56651611328125,0.0016850554384291172,1.2187637090682983,-0.010021361522376537
1760565910721545000,4.576544921875,0.0012062918394804,1.2426189184188843,-0.009374864399433136
1760565910731574000,4.586573974609375,-0.00166699243709445,1.2630506753921509,-0.010031066834926605
1760565910741603000,4.59660302734375,-0.0005242805927991867,1.2826058864593506,-0.011094287037849426
1760565910751632000,4.6066318359375,-0.0006838040426373482,1.297462821006775,-0.009751787409186363
1760565910761661000,4.616660888671875,-0.0009549600072205067,1.303419589996338,-0.01157962717115879
1760565910771690200,4.626690185546875,0.0006128428503870964,1.2966485023498535,-0.014113091863691807
1760565910781719000,4.636718994140625,0.00010185316205024719,1.2830332517623901,-0.0066140019334852695
1760565910791748000,4.646748046875,0.0009689782746136189,1.2516080141067505,-0.004229673650115728
1760565910801777200,4.656777099609375,0.000429665669798851,1.2268239259719849,-0.009328091517090797
1760565910811806000,4.666805908203125,0.0035261232405900955,1.2007144689559937,-0.008664431050419807
1760565910821835000,4.6768349609375,0.007890512235462666,1.1601098775863647,-0.010112403891980648
1760565910831864000,4.686864013671875,0.01035846397280693,1.0960170030593872,-0.0023410336580127478
1760565910841892900,4.696892822265625,0.0006301994435489178,1.0294712781906128,0.0032143443822860718
1760565910851922000,4.706921875,-0.0021461457945406437,0.9610744714736938,0.007745446637272835
1760565910861951200,4.716951171875,-0.005768963135778904,0.9068072438240051,0.0041978685185313225
1760565910871980000,4.72697998046875,-0.00622809212654829,0.8662869334220886,0.007847997359931469
1760565910882009000,4.737009033203125,-0.00944613665342331,0.8562423586845398,0.011629133485257626
1760565910892038100,4.7470380859375,-0.016406839713454247,0.8594996333122253,0.020699061453342438
1760565910902067000,4.75706689453125,-0.016935765743255615,0.8842067718505859,0.018114935606718063
1760565910912096000,4.767095947265625,-0.015803923830389977,0.908477246761322,0.027739332988858223
1760565910922125000,4.777125,-0.018976110965013504,0.9130909442901611,0.034505970776081085
1760565910932153900,4.78715380859375,-0.01793428137898445,0.9186137914657593,0.030418816953897476
1760565910942182100,4.79718212890625,-0.025245362892746925,0.9281356334686279,0.027999522164463997
1760565910952211200,4.807211181640625,-0.024821652099490166,0.9131020903587341,0.03399669751524925
1760565910962240000,4.817239990234375,-0.02786147966980934,0.881416916847229,0.03784371167421341
1760565910972269000,4.82726904296875,-0.025967705994844437,0.8562068939208984,0.03786075487732887
1760565910982298000,4.837298095703125,-0.02678718790411949,0.8383818864822388,0.04391540214419365
1760565910992327000,4.847326904296875,-0.025780778378248215,0.8522777557373047,0.041537731885910034
1760565911002356000,4.85735595703125,-0.025591164827346802,0.8922664523124695,0.027872001752257347
1760565911012385000,4.867385009765625,-0.025308869779109955,0.9574100375175476,0.0053360662423074245
1760565911022414000,4.8774140625,-0.03092239797115326,1.0446590185165405,-0.012541183270514011
1760565911032443100,4.887443115234375,-0.024987544864416122,1.1383917331695557,-0.025214366614818573
1760565911042472200,4.89747216796875,-0.02173265442252159,1.2219191789627075,-0.03283824771642685
1760565911052501000,4.9075009765625,-0.019295861944556236,1.285099744796753,-0.03187684714794159
1760565911062530000,4.917530029296875,-0.010341419838368893,1.331660509109497,-0.02983267232775688
1760565911072559000,4.92755908203125,-0.010287889279425144,1.3685413599014282,-0.03133362904191017
1760565911082588000,4.937587890625,-0.011165228672325611,1.403108835220337,-0.030382569879293442
1760565911092617000,4.947616943359375,-0.00805758498609066,1.4392266273498535,-0.030878983438014984
1760565911102646000,4.95764599609375,-0.007085707504302263,1.4687319993972778,-0.027780160307884216
1760565911112675000,4.967675048828125,-0.006649482529610395,1.4844439029693604,-0.022555837407708168
1760565911122704100,4.9777041015625,-0.007258615922182798,1.5133988857269287,-0.019710678607225418
1760565911132733200,4.987733154296875,-0.007931064814329147,1.5569050312042236,-0.019506413489580154
1760565911142762000,4.997761962890625,-0.007546840235590935,1.5983402729034424,-0.016708925366401672
1760565911152791000,5.007791015625,-0.005369439721107483,1.6204415559768677,-0.013088623061776161
1760565911162820000,5.017820068359375,-0.0007147672586143017,1.6176174879074097,-0.007405970245599747
1760565911172849000,5.027848876953125,0.0015776818618178368,1.601953387260437,-0.003729210002347827
1760565911182878000,5.0378779296875,-0.0005911011248826981,1.5843768119812012,-0.0006818105466663837
1760565911192907000,5.047906982421875,-0.0022678272798657417,1.5678706169128418,-0.0013699715491384268
1760565911202935800,5.057935791015625,-0.0017880932427942753,1.563843011856079,-0.0023610261268913746
1760565911212965000,5.067965087890625,-0.0020168586634099483,1.5640881061553955,-0.004016979597508907
1760565911222994200,5.077994140625,0.002410789020359516,1.5634212493896484,-0.0057831453159451485
1760565911233023000,5.08802294921875,0.00457274354994297,1.565544843673706,-0.004445439670234919
1760565911243052000,5.098052001953125,0.0023006307892501354,1.5634033679962158,-0.003533907700330019
1760565911253081000,5.1080810546875,0.0022273939102888107,1.5436208248138428,-0.0013700893614441156
1760565911263110000,5.11810986328125,-0.0016089379787445068,1.503872275352478,-0.00539608858525753
1760565911273139000,5.128138916015625,-0.0017591407522559166,1.4475514888763428,0.0013390458188951015
1760565911283168000,5.13816796875,-0.0034967842511832714,1.3582358360290527,0.0005887290462851524
1760565911293197000,5.148197021484375,-0.005869128275662661,1.2617969512939453,-0.006001795642077923
1760565911303226000,5.15822607421875,-0.014162232168018818,1.1745107173919678,-0.0154946967959404
1760565911313255200,5.168255126953125,-0.014730551280081272,1.1055412292480469,-0.01875280775129795
1760565911323284200,5.1782841796875,-0.01949341781437397,1.0460649728775024,-0.027428483590483665
1760565911333312500,5.1883125,-0.02845202572643757,1.0098310708999634,-0.04784826934337616
1760565911343341600,5.198341552734375,-0.04057199880480766,1.0455347299575806,-0.06587426364421844
1760565911353370600,5.20837060546875,-0.048584118485450745,1.1393038034439087,-0.0742269977927208
1760565911363399400,5.2183994140625,-0.046308644115924835,1.2723665237426758,-0.07380633056163788
1760565911373428500,5.228428466796875,-0.040892571210861206,1.4420769214630127,-0.07090002298355103
1760565911383457500,5.23845751953125,-0.03471396490931511,1.6116482019424438,-0.060341790318489075
1760565911393486800,5.24848681640625,-0.03241858631372452,1.7628473043441772,-0.05404554307460785
1760565911403515600,5.258515625,-0.011867919005453587,1.8992199897766113,-0.025764644145965576
1760565911413544700,5.268544677734375,-0.01201252918690443,2.0409672260284424,-0.013927958905696869
1760565911423573800,5.27857373046875,-0.02039642632007599,2.146799087524414,-0.03620503842830658
1760565911433602600,5.2886025390625,-0.04201383516192436,2.2122833728790283,-0.06225474178791046
1760565911443631600,5.298631591796875,-0.06619720160961151,2.267578601837158,-0.08356856554746628
1760565911453660700,5.30866064453125,-0.09000080823898315,2.311086416244507,-0.10150815546512604
1760565911463689500,5.318689453125,-0.11014255881309509,2.3431811332702637,-0.11926902830600739
1760565911473718500,5.328718505859375,-0.12270655483007431,2.3518447875976562,-0.13049718737602234
1760565911483747800,5.338747802734375,-0.12892308831214905,2.299393653869629,-0.1316589117050171
1760565911493776600,5.348776611328125,-0.1297720968723297,2.1819229125976562,-0.12671928107738495
1760565911503805700,5.3588056640625,-0.12189000844955444,2.009005069732666,-0.11524733901023865
1760565911513834800,5.368834716796875,-0.10179565101861954,1.803217887878418,-0.0862542986869812
1760565911523863600,5.378863525390625,-0.07683967798948288,1.6234053373336792,-0.0677783191204071
1760565911533892600,5.388892578125,-0.03803502395749092,1.5004618167877197,-0.02984771504998207
1760565911543921700,5.398921630859375,-0.005208346992731094,1.4361484050750732,-0.006125280633568764
1760565911553950500,5.408950439453125,0.005432313308119774,1.433707594871521,-0.003961195703595877
1760565911563979500,5.4189794921875,0.020318342372775078,1.4699032306671143,0.00370795838534832
1760565911574008600,5.429008544921875,0.03502777963876724,1.5260515213012695,0.01646503247320652
1760565911584037600,5.43903759765625,0.05639580264687538,1.563926339149475,0.034356676042079926
1760565911594066700,5.449066650390625,0.0778566226363182,1.5567033290863037,0.06193051487207413
1760565911604095700,5.459095703125,0.08791547268629074,1.5194902420043945,0.06133070960640907
1760565911614124500,5.46912451171875,0.08074065297842026,1.4682326316833496,0.05086848512291908
1760565911624153600,5.479153564453125,0.06695319712162018,1.4187127351760864,0.04390406236052513
1760565911634182700,5.4891826171875,0.04104037582874298,1.4005507230758667,0.02904495596885681
1760565911644211500,5.49921142578125,0.005276057869195938,1.4308030605316162,0.012105537578463554
1760565911654240500,5.509240478515625,-0.027649134397506714,1.4896517992019653,-0.004130957182496786
1760565911664269600,5.51926953125,-0.04301443323493004,1.5765644311904907,-0.0131536228582263
1760565911674298600,5.529298583984375,-0.04543817415833473,1.6775048971176147,-0.017724141478538513
1760565911684327700,5.53932763671875,-0.05174524337053299,1.771983027458191,-0.027667906135320663
1760565911694356700,5.549356689453125,-0.054199881851673126,1.871639609336853,-0.03184400871396065
1760565911704385500,5.559385498046875,-0.06746460497379303,1.990995168685913,-0.043840594589710236
1760565911714414600,5.56941455078125,-0.0972677692770958,2.1305413246154785,-0.052752330899238586
1760565911724443600,5.579443603515625,-0.12566988170146942,2.2829430103302,-0.05995887145400047
1760565911734472400,5.589472412109375,-0.1532019078731537,2.4394607543945312,-0.0667605847120285
1760565911744501500,5.59950146484375,-0.16302324831485748,2.568512439727783,-0.06844215095043182
1760565911754530600,5.609530517578125,-0.15042650699615479,2.649681329727173,-0.06345804035663605
1760565911764559600,5.6195595703125,-0.11443964391946793,2.676633358001709,-0.05415355786681175
1760565911774588700,5.629588623046875,-0.07372576743364334,2.648714065551758,-0.04281115531921387
1760565911784617700,5.63961767578125,-0.026187516748905182,2.600344657897949,-0.03718331456184387
1760565911794646500,5.649646484375,0.01683744788169861,2.550809383392334,-0.02863137051463127
1760565911804675600,5.659675537109375,0.043885380029678345,2.5084056854248047,-0.030332181602716446
1760565911814704600,5.66970458984375,0.05241841450333595,2.4759373664855957,-0.03517886996269226
1760565911824733700,5.679733642578125,0.05663930997252464,2.4508185386657715,-0.02133619226515293
1760565911834762500,5.689762451171875,0.05656047910451889,2.4415533542633057,-0.014151249080896378
1760565911844791600,5.69979150390625,0.04899940267205238,2.460496425628662,-0.0160771906375885
1760565911854820600,5.709820556640625,0.04430052265524864,2.497426748275757,-0.026944220066070557
1760565911864849700,5.719849609375,0.020853977650403976,0.15249617397785187,-0.072673499584198
1760565911874878700,5.729878662109375,-0.10146607458591461,0.42834585905075073,-0.21062150597572327
1760565911884907800,5.73990771484375,-0.010671194642782211,0.052106380462646484,-0.10316481441259384
1760565911894936600,5.7499365234375,-0.03124917484819889,-0.037838421761989594,0.03686472773551941
1760565911904965600,5.759965576171875,-0.03262355551123619,-0.042838748544454575,0.08914884179830551
1760565911914994700,5.76999462890625,-0.056723568588495255,-0.04822712391614914,0.11238039284944534
1760565911925023500,5.7800234375,-0.10795460641384125,-0.04226486384868622,0.07184241712093353
1760565911935052500,5.790052490234375,-0.08822724223136902,0.014155270531773567,-0.008107805624604225
1760565911945081600,5.80008154296875,-0.0801858901977539,0.04661072790622711,-0.04557570070028305
1760565911955110700,5.810110595703125,-0.05369676277041435,0.06314576417207718,-0.08382295817136765
1760565911965139700,5.8201396484375,-0.012051580473780632,0.057875365018844604,-0.07337937504053116
1760565911975168800,5.830168701171875,0.01377468928694725,0.007171705365180969,-0.013353848829865456
1760565911985197600,5.840197509765625,0.007716338615864515,0.007268934510648251,-0.009087063372135162
1760565911995226600,5.8502265625,0.005954924039542675,-0.0017354795709252357,0.012177213095128536
1760565912005255700,5.860255615234375,-0.0003971974365413189,0.0005823951214551926,0.012235622853040695
1760565912015284500,5.870284423828125,0.000910414382815361,-0.000045845285058021545,0.016222108155488968
1760565912025313500,5.8803134765625,-0.0014737574383616447,-0.006449264474213123,0.015584669075906277
1760565912035342600,5.890342529296875,-0.0013989228755235672,0.003813226707279682,0.004166631959378719
1760565912045371600,5.90037158203125,-0.0010909801349043846,-0.004164183512330055,0.010960211046040058
1760565912055400700,5.910400634765625,-0.0007546232081949711,-0.0022533657029271126,0.009997745044529438
1760565912065429800,5.9204296875,0.008859247900545597,-0.007602708414196968,0.019711315631866455
1760565912075458600,5.93045849609375,0.014009002596139908,-0.015836402773857117,0.03706660121679306
1760565912085487600,5.940487548828125,0.023430051282048225,-0.027800967916846275,0.05559500679373741
1760565912095516700,5.9505166015625,0.09281684458255768,-0.0230227243155241,0.046475544571876526
1760565912105545500,5.96054541015625,0.12446244060993195,-0.08457517623901367,0.12829726934432983
1760565912115574500,5.970574462890625,0.09914296865463257,-0.03884443640708923,0.0804828628897667
1760565912125603600,5.980603515625,0.02742505818605423,-0.04414904862642288,0.06951561570167542
1760565912135632600,5.990632568359375,0.018666988238692284,-0.030630310997366905,0.06225024163722992
1760565912145661700,6.00066162109375,-0.00020811567083001137,-0.01470181718468666,0.03882144019007683
1760565912155690800,6.010690673828125,-0.007232735864818096,0.0006467783823609352,0.007040075026452541
1760565912165719600,6.020719482421875,-0.01359526626765728,-0.00393256451934576,0.004276017192751169
1760565912175748600,6.03074853515625,-0.008032189682126045,-0.0017005694098770618,0.0012943418696522713
1760565912185777700,6.040777587890625,-0.007283676415681839,0.0007950933650135994,-0.012615787796676159
1760565912195806500,6.050806396484375,-0.0026369933038949966,-0.0004246346652507782,-0.010274071246385574
1760565912205835500,6.06083544921875,-0.002495361026376486,0.0037562018260359764,-0.020585928112268448
1760565912215864600,6.070864501953125,-0.001593614462763071,0.0024312790483236313,-0.014777041971683502
1760565912225893600,6.0808935546875,0.0012024147436022758,0.00439493078738451,-0.017636794596910477
1760565912235922700,6.090922607421875,-0.000019976403564214706,0.004388539120554924,-0.01688232086598873
1760565912245951700,6.10095166015625,-0.005810129456222057,0.005304188467562199,-0.016616858541965485
1760565912255980800,6.110980712890625,-0.005013844929635525,0.0018884185701608658,-0.009110472165048122
1760565912266009600,6.121009521484375,-0.004373786970973015,0.00016820337623357773,0.009483903646469116
1760565912276038700,6.13103857421875,-0.0014035636559128761,-0.0014219703152775764,0.005541626363992691
1760565912286067700,6.141067626953125,-0.0027390914037823677,0.0015299385413527489,-0.007540520746260881
1760565912296096500,6.151096435546875,-0.004024599678814411,-0.0031939763575792313,0.004157946910709143
1760565912306125600,6.16112548828125,-0.0033658049069344997,0.0012902962043881416,-0.00024653784930706024
1760565912316154600,6.171154541015625,-0.0001875883899629116,-0.0004969509318470955,0.00036146165803074837
1760565912326183700,6.18118359375,-0.000967975240200758,-0.0026155849918723106,0.0012156832963228226
1760565912336212200,6.191212158203125,0.0007622805424034595,0.004921426996588707,-0.003192381002008915
1760565912346241300,6.2012412109375,0.0018069306388497353,-0.000496862456202507,0.0038212975487113
1760565912356270000,6.21127001953125,0.0027901700232177973,0.003818524070084095,-0.003324496326968074
1760565912366299100,6.221299072265625,0.001298700924962759,-0.0034944373182952404,0.0023880647495388985
1760565912376328200,6.231328125,0.0014153476804494858,-0.0010613733902573586,-0.0023715365678071976
1760565912386357000,6.24135693359375,-0.0031556375324726105,-0.00276197399944067,0.003607435617595911
1760565912396386000,6.251385986328125,-0.0005356199108064175,0.0017398335039615631,-0.0034291683696210384
1760565912406415000,6.2614150390625,-0.001604677177965641,0.001741337589919567,0.0009725946001708508
1760565912416444200,6.271444091796875,-0.004437215626239777,0.002359990030527115,-0.0034333388321101665
1760565912426473200,6.28147314453125,-0.0007976405322551727,-0.0007091164588928223,0.0009666550904512405
1760565912436502300,6.291502197265625,-0.001281537115573883,-0.0004151035100221634,0.001643897034227848
1760565912446531000,6.301531005859375,-0.00034168316051363945,0.0029382463544607162,-0.000994713744148612
1760565912456560000,6.31156005859375,0.0041891527362167835,-0.0023569162003695965,0.0002918592654168606
1760565912466589200,6.321589111328125,0.002651924965903163,0.0013868287205696106,-0.0010944022797048092
1760565912476618000,6.331617919921875,0.001669484656304121,-0.0008297199383378029,0.0011370601132512093
1760565912486647000,6.34164697265625,-0.0015293098986148834,-0.0014573847874999046,-0.0013408930972218513
1760565912496676000,6.351676025390625,-0.004175692796707153,-0.0029452932067215443,0.0006245197728276253
1760565912506705200,6.361705078125,-0.0021675974130630493,-0.00005234312266111374,-0.0017777695320546627
1760565912516734200,6.371734130859375,-0.0018211202695965767,0.0012587308883666992,0.0036050118505954742
1760565912526763300,6.38176318359375,-0.0035442598164081573,0.0017481958493590355,-0.0019765770994126797
1760565912536792300,6.391792236328125,-0.0005796290934085846,0.0005822638049721718,0.0017108358442783356
1760565912546821000,6.401821044921875,-0.001392402220517397,-0.002246115356683731,-0.0004963423125445843
1760565912556850200,6.41185009765625,0.0008334675803780556,-0.0033667734824121,0.0046169268898665905
1760565912566879200,6.421879150390625,0.0019087325781583786,0.0006955945864319801,-0.0006968600209802389
1760565912576908000,6.431907958984375,0.004621428437530994,0.0008908044546842575,0.0014211521483957767
1760565912586937000,6.44193701171875,0.0019017327576875687,0.0013959817588329315,-0.00027541746385395527
1760565912596966100,6.451966064453125,0.0027680592611432076,0.0005581509321928024,0.00010994216427206993
1760565912606995200,6.4619951171875,0.0010966388508677483,-0.0017003072425723076,0.0013189543969929218
1760565912617024300,6.472024169921875,-0.001237355638295412,0.0006299586966633797,-0.0017237074207514524
1760565912627053300,6.48205322265625,-0.002838034648448229,-0.0012553120031952858,0.0014428095892071724
1760565912637082000,6.49208203125,-0.0005221501924097538,0.002648349851369858,-0.002825438743457198
1760565912647111200,6.502111083984375,-0.0018854527734220028,0.001605427823960781,0.004123258870095015
1760565912657140200,6.51214013671875,-0.0027200873009860516,0.0033122478052973747,-0.0012238363269716501
1760565912667169000,6.5221689453125,-0.0010418589226901531,-0.0002780808135867119,-0.00005437526851892471
1760565912677198000,6.532197998046875,-0.0006607607938349247,0.0007528280839323997,-0.002750026760622859
1760565912687227100,6.54222705078125,0.002803431823849678,-0.0003788098692893982,-0.000016390811651945114
1760565912697256200,6.552256103515625,0.0018883696757256985,0.00051095150411129,0.0011886893771588802
1760565912707285200,6.56228515625,0.0007040854543447495,-0.000007667578756809235,-0.0009686874691396952
1760565912717314300,6.572314208984375,0.002944070380181074,0.0010006045922636986,0.0012132404372096062
1760565912727343000,6.582343017578125,-0.0014553931541740894,-0.00014712847769260406,-0.0024953552056103945
1760565912737372200,6.5923720703125,-0.002378977369517088,-0.0007466059178113937,0.0016282834112644196
1760565912747401200,6.602401123046875,-0.005142228677868843,-0.00034394022077322006,-0.002811360638588667
1760565912757430000,6.612429931640625,-0.0009386949241161346,-0.0007937485352158546,0.000918662641197443
1760565912767459000,6.622458984375,-0.0008722157217562199,0.0026061218231916428,0.0009938450530171394
1760565912777488100,6.632488037109375,-0.0018666395917534828,0.0016692224889993668,0.0015475163236260414
1760565912787517200,6.64251708984375,-0.0006065033376216888,0.00023674964904785156,0.0008032801561057568
1760565912797546200,6.652546142578125,0.00021508196368813515,-0.0011105434969067574,-0.0014289813116192818
1760565912807575300,6.6625751953125,0.0003035226836800575,-0.0005521820858120918,0.0016100015491247177
1760565912817604000,6.67260400390625,0.0018438948318362236,-0.0011929385364055634,-0.0004329094663262367
1760565912827633200,6.682633056640625,0.0012438609264791012,0.00009400397539138794,-0.0006385552696883678
1760565912837662200,6.692662109375,0.003028445178642869,0.0016506221145391464,-0.0012617348693311214
1760565912847691000,6.70269091796875,-0.0013416558504104614,-0.0021586031652987003,0.0006246003322303295
1760565912857720000,6.712719970703125,-0.0009823949076235294,-0.0005178293213248253,-0.002392760943621397
1760565912867749000,6.7227490234375,-0.0019248723983764648,-0.0017364970408380032,0.0013916678726673126
1760565912877778200,6.732778076171875,0.0005521331913769245,-0.00024805590510368347,-0.000011818017810583115
1760565912887807200,6.74280712890625,-0.0025374945253133774,-0.0015734047628939152,0.0028780456632375717
1760565912897836300,6.752836181640625,-0.002331365831196308,-0.016798697412014008,0.018425311893224716
1760565912907865000,6.762864990234375,-0.011010551825165749,0.0008883476257324219,-0.0012359337415546179
1760565912917894100,6.77289404296875,-0.007787860464304686,-0.009453772567212582,0.008570624515414238
1760565912927923200,6.782923095703125,-0.004697028081864119,0.004560018889605999,-0.008349258452653885
1760565912937952300,6.7929521484375,-0.0034346901811659336,0.009509238414466381,-0.009807606227695942
1760565912947981000,6.80298095703125,-0.004945953376591206,0.009225168265402317,-0.01400862168520689
1760565912958010000,6.813010009765625,-0.003774961456656456,0.009909599088132381,-0.016897086054086685
1760565912968039200,6.8230390625,-0.009055458009243011,0.014886346645653248,-0.02356371469795704
1760565912978068200,6.833068115234375,-0.010991042479872704,0.012893768958747387,-0.021260345354676247
1760565912988097300,6.84309716796875,-0.001937356311827898,0.008630113676190376,-0.014257842674851418
1760565912998126300,6.853126220703125,0.0004799948073923588,0.00510142557322979,-0.002727953949943185
1760565913008155100,6.863155029296875,0.005452433601021767,0.0042157843708992004,-0.0079849474132061
1760565913018184200,6.87318408203125,0.0086327800527215,0.0001352895051240921,-0.003072214312851429
1760565913028213200,6.883213134765625,0.008439445868134499,-0.0032392358407378197,0.0006656227633357048
1760565913038242000,6.893241943359375,0.0026425430551171303,-0.006248341407626867,0.005413506645709276
1760565913048271000,6.90327099609375,0.002803236711770296,-0.00512263597920537,0.007477893494069576
1760565913058300200,6.913300048828125,0.00001543993130326271,0.0025115814059972763,0.010166620835661888
1760565913068329200,6.9233291015625,-0.0010636933147907257,0.0013857651501893997,0.008280240930616856
1760565913078358300,6.933358154296875,-0.002960396930575371,-0.007613322231918573,0.005157683975994587
1760565913088387300,6.94338720703125,-0.006486186757683754,-0.001832426991313696,0.002349624875932932
1760565913098416000,6.953416015625,-0.005346354097127914,-0.003897974267601967,0.0045733642764389515
1760565913108445200,6.963445068359375,-0.0059947543777525425,-0.004458214621990919,0.009537618607282639
1760565913118474200,6.97347412109375,-0.006138299126178026,-0.004751162603497505,0.009714985266327858
1760565913128503000,6.9835029296875,-0.0050435964949429035,-0.004094245377928019,0.008511001244187355
1760565913138532000,6.993531982421875,-0.0009852047078311443,-0.004982409533113241,0.006370618473738432
1760565913148561200,7.00356103515625,-0.0015198723413050175,-0.003811029251664877,0.007138606160879135
1760565913158590000,7.01358984375,0.004761459305882454,-0.002766537480056286,0.005984125658869743
1760565913168619300,7.023619384765625,0.0008422229439020157,-0.004324902314692736,0.005817724857479334
1760565913178648300,7.0336484375,0.0011250507086515427,-0.003900660667568445,0.006113069597631693
1760565913188677000,7.043677001953125,0.0014788126572966576,-0.008305675350129604,0.007290918845683336
1760565913198706200,7.0537060546875,-0.0005108346231281757,-0.007264113053679466,0.007861368358135223
1760565913208735200,7.0637353515625,-0.0037880591116845608,-0.004633184522390366,0.0065908306278288364
1760565913218764000,7.073763916015625,-0.005448007490485907,-0.002138335257768631,0.005727433133870363
1760565913228793000,7.08379296875,-0.0011377371847629547,-0.004214195068925619,0.004629340022802353
1760565913238822100,7.093822265625,-0.00010522967204451561,0.0024969708174467087,0.0026250453665852547
1760565913248851000,7.103850830078125,-0.001561612356454134,0.0026598768308758736,-0.0011716382578015327
1760565913258880300,7.11388037109375,-0.008889034390449524,0.008914576843380928,-0.0018342328257858753
1760565913268909300,7.123909423828125,0.010127676650881767,0.004330393858253956,-0.009073471650481224
1760565913278938000,7.133938232421875,0.01032927818596363,0.006958667188882828,-0.010328087024390697
1760565913288967200,7.14396728515625,0.013256143778562546,0.006954001262784004,-0.012971188873052597
1760565913298996200,7.153996337890625,0.011897931806743145,0.0032298360019922256,-0.009592169895768166
1760565913309025000,7.16402490234375,0.0055254013277590275,0.011502393521368504,-0.014218329451978207
1760565913319054000,7.17405419921875,0.0011490285396575928,0.016218051314353943,-0.018821604549884796
1760565913329084000,7.184083984375,-0.007078409660607576,0.012350394390523434,-0.01953393965959549
1760565913339113000,7.194113037109375,-0.006061880383640528,0.00643391627818346,-0.010955097153782845
1760565913349142000,7.20414208984375,-0.005355527624487877,0.008304609917104244,-0.01273743063211441
1760565913359170800,7.2141708984375,-0.009509792551398277,0.007993285544216633,-0.009600494056940079
1760565913369199900,7.224199951171875,-0.007948843762278557,0.0060134511440992355,-0.01122007891535759
1760565913379229200,7.234229248046875,-0.007071598432958126,0.008616159670054913,-0.014188438653945923
1760565913389258000,7.244258056640625,-0.0029871552251279354,0.010740767233073711,-0.016676196828484535
1760565913399287000,7.254287109375,0.001483227126300335,0.008136461488902569,-0.01065558847039938
1760565913409316000,7.264316162109375,0.002606614027172327,0.006706235930323601,-0.008060440421104431
1760565913419345000,7.274344970703125,0.000981552992016077,0.00369207002222538,-0.007681473158299923
1760565913429374000,7.2843740234375,0.006026360671967268,0.005295995622873306,-0.008547063916921616
1760565913439403000,7.294403076171875,-0.0006757508963346481,0.0036829188466072083,-0.004260972607880831
1760565913449431800,7.304431884765625,0.0027721968945115805,0.000941932201385498,0.003532402217388153
1760565913459460900,7.3144609375,0.002154609654098749,-0.0004098881036043167,0.006866146810352802
1760565913469490200,7.324490234375,0.005037267692387104,0.006701943464577198,-0.004821848589926958
1760565913479519000,7.33451904296875,0.0035216626711189747,0.0032819118350744247,-0.000965857645496726
1760565913489548000,7.344548095703125,0.00527576357126236,0.008041962049901485,-0.006718786433339119
1760565913499577000,7.3545771484375,0.007931733503937721,0.010791144333779812,-0.01377003826200962
1760565913509606000,7.36460595703125,0.021535055711865425,0.015582449734210968,-0.025309419259428978
1760565913519635000,7.374635009765625,0.0336441844701767,0.03576787933707237,-0.048697832971811295
1760565913529664000,7.3846640625,0.0450342632830143,0.042860738933086395,-0.06114892289042473
1760565913539692800,7.39469287109375,0.05646082013845444,0.04536757618188858,-0.07234138995409012
1760565913549721900,7.404721923828125,0.0681377723813057,0.025263497605919838,-0.044064659625291824
1760565913559751000,7.4147509765625,0.06335659325122833,0.008962290361523628,-0.015283345244824886
1760565913569780200,7.4247802734375,0.05760261043906212,0.0039110686630010605,-0.013004631735384464
1760565913579809000,7.43480908203125,0.05952727794647217,0.013462495990097523,-0.019762136042118073
1760565913589838000,7.444838134765625,0.05404738336801529,-0.0030956538394093513,0.007487541530281305
1760565913599867100,7.4548671875,0.05128834769129753,-0.004546277690678835,0.0073732915334403515
1760565913609896000,7.46489599609375,0.050228461623191833,-0.004481969866901636,0.004865477792918682
1760565913619925000,7.474925048828125,0.049515798687934875,-0.005460681859403849,0.012478923425078392
1760565913629954000,7.4849541015625,0.040478918701410294,0.0005827276036143303,0.0018817218951880932
1760565913639982800,7.49498291015625,0.04140783101320267,0.009431878104805946,-0.00043336418457329273
1760565913650012000,7.505011962890625,0.0432605966925621,0.014912998303771019,-0.0025223621632903814
1760565913660041200,7.515041259765625,0.036583252251148224,0.02153361588716507,-0.012233046814799309
1760565913670070000,7.525070068359375,0.03816843777894974,0.0320807546377182,-0.019057512283325195
1760565913680099000,7.53509912109375,0.047169387340545654,0.044748347252607346,-0.02144343964755535
1760565913690128100,7.545128173828125,0.05027313530445099,0.06117678061127663,-0.01772947609424591
1760565913700157000,7.555156982421875,0.04611407592892647,0.1287691444158554,-0.010748798958957195
1760565913710186000,7.56518603515625,0.05357891693711281,0.20300501585006714,-0.014364040456712246
1760565913720215000,7.575215087890625,0.08379141986370087,0.2701457142829895,-0.014930760487914085
1760565913730243800,7.585243896484375,0.1193402037024498,0.3359273374080658,-0.014048725366592407
1760565913740273000,7.59527294921875,0.1482301652431488,0.41928961873054504,0.000673229806125164
1760565913750302000,7.605302001953125,0.17593182623386383,0.4665152132511139,0.005226877052336931
1760565913760331000,7.6153310546875,0.19918735325336456,0.4781374931335449,-0.001457124948501587
1760565913770360000,7.625360107421875,0.21823109686374664,0.46473097801208496,-0.00610134843736887
1760565913780389000,7.63538916015625,0.2330278903245926,0.4548429250717163,-0.004501854069530964
1760565913790418000,7.64541796875,0.23172372579574585,0.4618123173713684,-0.012063071131706238
1760565913800447000,7.655447021484375,0.2299274206161499,0.44610869884490967,-0.014464709907770157
1760565913810476000,7.66547607421875,0.21536672115325928,0.4023573100566864,-0.010688114911317825
1760565913820504800,7.6755048828125,0.18076907098293304,0.35080915689468384,-0.012714246287941933
1760565913830534000,7.685533935546875,0.14212490618228912,0.3009270131587982,-0.0054472265765070915
1760565913840563000,7.69556298828125,0.1109992191195488,0.26146137714385986,-0.006111685186624527
1760565913850592000,7.705592041015625,0.09371583163738251,0.24604646861553192,-0.0005049321334809065
1760565913860621000,7.71562109375,0.07167790830135345,0.2626515328884125,0.0017446400597691536
1760565913870650000,7.725650146484375,0.04464352875947952,0.31537023186683655,0.0012387209571897984
1760565913880679000,7.735678955078125,0.016482995823025703,0.3723728060722351,0.003436894156038761
1760565913890708000,7.7457080078125,-0.014122944325208664,0.44082126021385193,0.011584904044866562
1760565913900737000,7.755737060546875,-0.03152510151267052,0.5212146043777466,0.013057099655270576
1760565913910765800,7.765765869140625,-0.03964348882436752,0.6387180685997009,0.012114886194467545
1760565913920795000,7.775794921875,-0.04262356460094452,0.782474935054779,0.01130475290119648
1760565913930824000,7.785823974609375,-0.041886016726493835,0.9288952350616455,0.012559883296489716
1760565913940853000,7.79585302734375,-0.0517951101064682,1.030915379524231,0.0017338665202260017
1760565913950882000,7.805882080078125,-0.05885191634297371,1.1166540384292603,-0.006249203346669674
1760565913960911000,7.8159111328125,-0.06494496762752533,1.220676064491272,-0.009776560589671135
1760565913970940200,7.825940185546875,-0.05702899023890495,1.3022501468658447,-0.0015015725512057543
1760565913980969000,7.835968994140625,-0.049223531037569046,1.3293187618255615,0.002831923309713602
1760565913990998000,7.845998046875,-0.05028298869729042,1.3278053998947144,0.008458297699689865
1760565914001027000,7.856027099609375,-0.05648069828748703,1.3266443014144897,0.010331299155950546
1760565914011055900,7.866055908203125,-0.06305082887411118,1.3292925357818604,0.01884463056921959
1760565914021085000,7.8760849609375,-0.06905466318130493,1.3338053226470947,0.027310818433761597
1760565914031114000,7.886114013671875,-0.07092979550361633,1.332398772239685,0.03312504664063454
1760565914041143000,7.89614306640625,-0.0713694840669632,1.3143202066421509,0.03282224386930466
1760565914051172000,7.906172119140625,-0.061999913305044174,1.2801209688186646,0.027435850352048874
1760565914061201200,7.916201171875,-0.042079463601112366,1.249064564704895,0.03181435540318489
1760565914071230000,7.92622998046875,-0.022767324000597,1.222959280014038,0.024129673838615417
1760565914081259000,7.936259033203125,-0.007251213304698467,1.1960657835006714,0.014476779848337173
1760565914091288000,7.9462880859375,0.007371251937001944,1.165525197982788,0.004128797445446253
1760565914101316900,7.95631689453125,0.020438583567738533,1.121673345565796,-0.0020207075867801905
1760565914111346000,7.966345947265625,0.02704707719385624,1.0799757242202759,-0.00823282916098833
1760565914121376000,7.9763759765625,0.035556405782699585,1.0448596477508545,-0.006648514419794083
1760565914131404000,7.986404052734375,0.04003104567527771,1.0437673330307007,0.011137154884636402
1760565914141433900,7.996433837890625,0.043973591178655624,1.0689078569412231,0.008605021052062511
1760565914151463000,8.006462890625,0.05351107567548752,1.12177312374115,0.014882957562804222
1760565914161491000,8.016490966796875,0.044810257852077484,1.1795693635940552,0.008863149210810661
1760565914171521000,8.02652099609375,0.04824412241578102,1.2529879808425903,-0.004218362271785736
1760565914181550000,8.036550048828126,0.05822271853685379,1.3297879695892334,-0.01471441239118576
1760565914191579100,8.0465791015625,0.06790654361248016,1.4015746116638184,-0.03276573866605759
1760565914201608000,8.05660791015625,0.080076664686203,1.4778157472610474,-0.04405594244599342
1760565914211637000,8.066636962890625,0.090939462184906,1.5678069591522217,-0.05878080800175667
1760565914221666000,8.076666015625,0.08116459846496582,1.6918340921401978,-0.04352115839719772
1760565914231694800,8.08669482421875,0.05622854456305504,1.8371238708496094,-0.018994644284248352
1760565914241724000,8.096723876953124,0.03143344819545746,1.9657998085021973,0.007190885953605175
1760565914251753200,8.106753173828125,0.008700553327798843,2.0577166080474854,0.026667645201086998
1760565914261782000,8.116781982421875,-0.013678520917892456,2.115283250808716,0.04256432130932808
1760565914271811000,8.12681103515625,-0.026791512966156006,2.1461660861968994,0.047399040311574936
1760565914281840000,8.136840087890626,-0.024906527251005173,2.137136697769165,0.03847718611359596
1760565914291869000,8.146868896484374,-0.013746805489063263,2.0942537784576416,0.03405018523335457
1760565914301898000,8.15689794921875,-0.009899070486426353,2.029742479324341,0.02232934534549713
1760565914311927000,8.166927001953125,-0.00785616971552372,1.976826548576355,0.025610653683543205
1760565914321955800,8.176955810546875,-0.0016981433145701885,1.9668855667114258,0.018508801236748695
1760565914331984600,8.186984619140626,-0.002004750072956085,2.015199661254883,0.011264603585004807
1760565914342013700,8.197013671875,0.00578765943646431,2.0987703800201416,0.0069918278604745865
1760565914352042800,8.207042724609375,0.011443288996815681,2.2256526947021484,0.012937633320689201
1760565914362071600,8.217071533203125,0.010906662791967392,2.3617873191833496,0.018031463027000427
1760565914372100600,8.2271005859375,0.009878067299723625,2.5001189708709717,0.017871711403131485
1760565914382129700,8.237129638671876,0.013707160018384457,2.6239240169525146,0.020892800763249397
1760565914392158500,8.247158447265624,0.00835434254258871,2.745459794998169,0.020586051046848297
1760565914402187500,8.2571875,0.009856099262833595,2.812647581100464,0.01470153033733368
1760565914412216600,8.267216552734375,0.006883513648062944,2.849669933319092,0.013379823416471481
1760565914422245400,8.277245361328125,0.0007795486599206924,2.8705527782440186,0.023590916767716408
1760565914432274700,8.287274658203126,-0.003894475754350424,2.902102470397949,0.02864794060587883
1760565914442303700,8.2973037109375,-0.008238358423113823,2.9431605339050293,0.03310474008321762
1760565914452332800,8.307332763671875,-0.006831961218267679,2.997034788131714,0.03438165783882141
1760565914462361600,8.317361572265625,-0.006443938706070185,3.04790997505188,0.03665146976709366
1760565914472390700,8.327390625,-0.007594105321913958,3.0791549682617188,0.03367654234170914
1760565914482419700,8.337419677734376,0.0025650551542639732,3.0943984985351562,0.03448241576552391
1760565914492448500,8.347448486328124,0.009030772373080254,3.081744909286499,0.02546834573149681
1760565914502477600,8.3574775390625,0.011385539546608925,3.0601704120635986,0.01720641925930977
1760565914512506600,8.367506591796875,0.016318898648023605,3.044464588165283,0.013360265642404556
1760565914522535700,8.37753564453125,0.015208892524242401,3.0165536403656006,0.012089405208826065
1760565914532564700,8.387564697265624,0.010971147567033768,2.982227087020874,0.013891065493226051
1760565914542593800,8.39759375,0.00827016867697239,2.9360194206237793,0.016861287876963615
1760565914552622600,8.40762255859375,0.004679576493799686,2.877114772796631,0.019249362871050835
1760565914562651600,8.417651611328125,-0.001906154677271843,2.80661940574646,0.02319483645260334
1760565914572680700,8.4276806640625,-0.004411010537296534,2.7548773288726807,0.03232867643237114
1760565914582709500,8.43770947265625,-0.01412915252149105,2.7091336250305176,0.04525086656212807
1760565914592738600,8.447738525390625,-0.021047737449407578,2.6302649974823,0.058288753032684326
1760565914602767600,8.457767578125,-0.017293214797973633,2.5232648849487305,0.07099416106939316
1760565914612796700,8.467796630859375,-0.02771475911140442,2.4026992321014404,0.07762180268764496
1760565914622825700,8.47782568359375,-0.039852116256952286,2.234487533569336,0.02806197665631771
1760565914632854800,8.487854736328124,-0.05984601378440857,2.0563254356384277,-0.010281052440404892
1760565914642883600,8.497883544921875,-0.05113774538040161,1.9041880369186401,-0.030322937294840813
1760565914652912600,8.50791259765625,-0.04193983972072601,1.797341227531433,-0.018624983727931976
1760565914662941700,8.517941650390625,-0.02151978574693203,1.6993755102157593,-0.04608723521232605
1760565914672970500,8.527970458984376,-0.010186136700212955,1.602561116218567,-0.07798255980014801
1760565914682999600,8.53799951171875,0.0021035531535744667,1.5349748134613037,-0.13631272315979004
1760565914693028600,8.548028564453125,0.014318332076072693,1.5041359663009644,-0.20065082609653473
1760565914703057400,8.558057373046875,0.014120724983513355,1.493078589439392,-0.25559237599372864
1760565914713086700,8.568086669921875,0.01525936834514141,1.4734762907028198,-0.29602473974227905
1760565914723115800,8.57811572265625,-0.013132058084011078,1.459093451499939,-0.23705700039863586
1760565914733144600,8.58814453125,-0.016313359141349792,1.4221646785736084,-0.2103377878665924
1760565914743173600,8.598173583984375,-0.020947791635990143,1.390074372291565,-0.19436201453208923
1760565914753202700,8.60820263671875,-0.024919696152210236,1.3715544939041138,-0.1945459246635437
1760565914763231500,8.6182314453125,-0.025210514664649963,1.3606725931167603,-0.19972418248653412
1760565914773260500,8.628260498046876,-0.028681285679340363,1.3828439712524414,-0.19083751738071442
1760565914783289600,8.63828955078125,-0.02879447117447853,1.4195301532745361,-0.1828879714012146
1760565914793318400,8.648318359375,-0.030862882733345032,1.449928641319275,-0.16700337827205658
1760565914803347700,8.65834765625,-0.027091313153505325,1.4450137615203857,-0.15342499315738678
1760565914813376800,8.668376708984376,-0.02517404779791832,1.4269814491271973,-0.13288146257400513
1760565914823405600,8.678405517578126,-0.022192904725670815,1.3962889909744263,-0.11417567729949951
1760565914833434600,8.6884345703125,-0.01627497747540474,1.3546563386917114,-0.1032421886920929
1760565914843463700,8.698463623046875,-0.01965985633432865,1.3122652769088745,-0.09699893742799759
1760565914853492700,8.70849267578125,-0.018329106271266937,1.2723274230957031,-0.08938818424940109
1760565914863521500,8.718521484375,-0.019579194486141205,1.2315864562988281,-0.0860360637307167
1760565914873550600,8.728550537109374,-0.01910749450325966,1.2218760251998901,-0.07305707037448883
1760565914883579600,8.73857958984375,-0.015572680160403252,1.2378216981887817,-0.05617528781294823
1760565914893608400,8.7486083984375,-0.01327478513121605,1.2682571411132812,-0.04516712948679924
1760565914903637800,8.7586376953125,-0.00781290978193283,1.3069283962249756,-0.029301613569259644
1760565914913666800,8.768666748046876,-0.002041079103946686,1.3436251878738403,-0.02162480354309082
1760565914923696600,8.778696533203124,-0.0016788886860013008,1.3644729852676392,-0.010483736172318459
1760565914933725700,8.7887255859375,-0.0019449000246822834,1.379211664199829,-0.010679194703698158
1760565914943754800,8.798754638671875,-0.0005547301843762398,1.3905117511749268,-0.010527927428483963
1760565914953783600,8.808783447265625,-0.002318193204700947,1.416015863418579,-0.010774681344628334
1760565914963812600,8.8188125,-0.0013021966442465782,1.4606459140777588,-0.009995972737669945
1760565914973841700,8.828841552734374,-0.0006994097493588924,1.5391795635223389,-0.005714678671211004
1760565914983870500,8.838870361328125,0.0006657266058027744,1.6034398078918457,-0.0036637785378843546
1760565914993899500,8.8488994140625,-0.0015757461078464985,1.6294695138931274,-0.007236677221953869
1760565915003928600,8.858928466796876,0.0035953139886260033,1.6262845993041992,-0.000953747658059001
1760565915013957600,8.86895751953125,0.000762399286031723,1.6444460153579712,-0.003429153934121132
1760565915023986700,8.878986572265624,0.0027824067510664463,1.6750586032867432,-0.0012706618290394545
1760565915034015700,8.889015625,0.004497387446463108,1.7167798280715942,0.000015712343156337738
1760565915044044800,8.899044921875,0.0013958700001239777,1.7461092472076416,-0.0019630161114037037
1760565915054073600,8.909073486328126,0.00043696630746126175,1.7765612602233887,-0.006885951384902
1760565915064102700,8.9191025390625,-0.00028501637279987335,1.807519793510437,-0.002907721558585763
1760565915074131700,8.929131591796875,0.001011114101856947,1.8263254165649414,-0.006620469503104687
1760565915084160500,8.939160400390625,0.0025248550809919834,1.8287957906723022,-0.007635400630533695
1760565915094189600,8.949189453125,0.004887095652520657,1.8170795440673828,-0.005028100684285164
1760565915104218600,8.959218505859376,0.0071012480184435844,1.7929774522781372,0.0003181952051818371
1760565915114247700,8.96924755859375,0.002717519411817193,1.7620974779129028,-0.0031479913741350174
1760565915124276700,8.97927685546875,-0.005139604676514864,1.7318085432052612,-0.01055903546512127
1760565915134305800,8.989305908203125,-0.010827872902154922,1.7014373540878296,-0.01604253426194191
1760565915144334600,8.99933447265625,-0.029738981276750565,1.664640188217163,-0.03618455305695534
1760565915154363600,9.00936376953125,-0.05522209033370018,1.6321184635162354,-0.06645802408456802
1760565915164392700,9.019392822265624,-0.08672568947076797,1.5900064706802368,-0.09986817836761475
1760565915174421500,9.02942138671875,-0.10836326330900192,1.5574140548706055,-0.11372552067041397
1760565915184450600,9.039450439453125,-0.11822041869163513,1.517526626586914,-0.12231075018644333
1760565915194479600,9.049479736328125,-0.11978787928819656,1.4616199731826782,-0.12267652899026871
1760565915204508400,9.05950830078125,-0.10957252979278564,1.3665682077407837,-0.11131708323955536
1760565915214537700,9.069537841796874,-0.1033213809132576,1.2465274333953857,-0.1044667512178421
1760565915224566800,9.07956689453125,-0.09197711199522018,1.1167044639587402,-0.09338107705116272
1760565915234595600,9.089595703125,-0.07704860717058182,1.0215575695037842,-0.07574161887168884
1760565915244624600,9.099624755859375,-0.06953662633895874,0.9498715996742249,-0.06278666853904724
1760565915254653700,9.10965380859375,-0.05886516347527504,0.8826461434364319,-0.05184279382228851
1760565915264682500,9.1196826171875,-0.04707934707403183,0.834516167640686,-0.04255715012550354
1760565915274711600,9.129711669921875,-0.02874814346432686,0.8296587467193604,-0.028698641806840897
1760565915284740600,9.13974072265625,-0.01486082375049591,0.8612470030784607,-0.012044830247759819
1760565915294769400,9.149769287109375,-0.001765386201441288,0.9015325307846069,-0.003103234339505434
1760565915304798700,9.159798828125,0.004230188205838203,0.9340598583221436,0.0018451851792633533
1760565915314827800,9.169827880859375,0.0034740054979920387,0.9818575382232666,0.0034185824915766716
1760565915324856600,9.179856689453125,0.004246322438120842,1.045464038848877,0.010775565169751644
1760565915334885600,9.1898857421875,0.009307784028351307,1.1128283739089966,0.007300106808543205
1760565915344914700,9.199914794921876,0.018484503030776978,1.174518346786499,0.010125720873475075
1760565915354943500,9.209943603515624,0.031055042520165443,1.2226454019546509,0.017929695546627045
1760565915364972500,9.21997265625,0.050736069679260254,1.2870534658432007,0.0298212431371212
1760565915375001600,9.230001708984375,0.07537166774272919,1.3977923393249512,0.046246323734521866
1760565915385030400,9.240030517578125,0.09915156662464142,1.5514607429504395,0.05781828984618187
1760565915395059700,9.250059814453126,0.11806792765855789,1.719308614730835,0.06682682782411575
1760565915405088800,9.2600888671875,0.12822255492210388,1.8731095790863037,0.07262986153364182
1760565915415117600,9.27011767578125,0.11405530571937561,1.9916359186172485,0.06239308416843414
1760565915425146600,9.280146728515625,0.08257514238357544,2.06598162651062,0.04343856871128082
1760565915435175700,9.29017578125,0.055719729512929916,2.0909531116485596,0.02728975936770439
1760565915445204700,9.300204833984376,0.046322230249643326,2.073784351348877,0.016764413565397263
1760565915455233500,9.310233642578124,0.0410931222140789,2.0225255489349365,0.013376858085393906
1760565915465262600,9.3202626953125,0.04143240675330162,1.9755315780639648,0.01670740731060505
1760565915475291600,9.330291748046875,0.05272894352674484,1.9020874500274658,-0.018192853778600693
1760565915485320400,9.340320556640625,0.078664131462574,1.6772540807724,-0.06198880448937416
1760565915495349800,9.350349853515626,0.04376498609781265,1.5599545240402222,-0.13599197566509247
1760565915505379600,9.360379638671875,0.0412573516368866,1.4526190757751465,-0.13037323951721191
1760565915515407600,9.37040771484375,0.0422184020280838,1.4306164979934692,-0.13369841873645782
1760565915525437700,9.380437744140625,0.04618038237094879,1.4618083238601685,-0.14231081306934357
1760565915535466800,9.390466796875,0.0504579022526741,1.4915004968643188,-0.15649542212486267
1760565915545495600,9.40049560546875,0.05465477705001831,1.530355453491211,-0.18263648450374603
1760565915555524600,9.410524658203125,0.052206311374902725,1.559748649597168,-0.18996194005012512
1760565915565553700,9.4205537109375,0.057504404336214066,1.533460021018982,-0.18569022417068481
1760565915575582500,9.43058251953125,0.062345702201128006,1.4431657791137695,-0.18408973515033722
1760565915585611500,9.440611572265626,0.07489664852619171,1.3496267795562744,-0.1717478483915329
1760565915595640600,9.450640625,0.08831677585840225,1.31156325340271,-0.16428722441196442
1760565915605669600,9.460669677734375,0.09478479623794556,1.340978741645813,-0.17629674077033997
1760565915615698700,9.47069873046875,0.09609980881214142,1.4389936923980713,-0.19199244678020477
1760565915625727700,9.480727783203125,0.09712778776884079,1.6194145679473877,-0.21326684951782227
1760565915635756800,9.4907568359375,0.08904976397752762,1.853031039237976,-0.22978615760803223
1760565915645785600,9.50078564453125,0.0816941186785698,2.0846023559570312,-0.14922286570072174
1760565915655814700,9.510814697265625,0.06916046887636185,2.310114860534668,-0.05319296568632126
1760565915665843700,9.52084375,0.054342105984687805,2.5072710514068604,-0.034697312861680984
1760565915675872500,9.53087255859375,-0.0011655576527118683,2.634150743484497,-0.09309308975934982
1760565915685901600,9.540901611328126,-0.08016397058963776,2.6098649501800537,-0.17553018033504486
1760565915695930600,9.5509306640625,-0.07929254323244095,2.104104518890381,-0.20626410841941833
1760565915705959700,9.560959716796875,0.24249215424060822,-0.6555297374725342,-0.2039056122303009
1760565915715988700,9.57098876953125,0.03276531398296356,0.11487904191017151,-0.20339451730251312
1760565915726017800,9.581017822265625,-0.02116183191537857,-0.00021345540881156921,0.05897185206413269
1760565915736046600,9.591046630859376,0.023115776479244232,0.16489748656749725,0.22929655015468597
1760565915746075600,9.60107568359375,0.047138284891843796,0.10777294635772705,0.21032685041427612
1760565915756104700,9.611104736328125,0.04311779886484146,0.10079928487539291,0.1401638686656952
1760565915766133500,9.621133544921875,0.06513655185699463,0.042421191930770874,0.0547616146504879
1760565915776162600,9.63116259765625,0.08816014230251312,0.03277302533388138,0.03703201562166214
1760565915786191600,9.641191650390626,0.1331089586019516,0.04103068262338638,0.07076548039913177
1760565915796220400,9.651220458984374,0.17531080543994904,0.02515970543026924,0.07495098561048508
1760565915806249700,9.661249755859375,0.17742589116096497,0.01895241066813469,0.051712777465581894
1760565915816278800,9.67127880859375,0.17243166267871857,0.005603513680398464,0.0032901321537792683
1760565915826307600,9.6813076171875,0.14374995231628418,0.0038484903052449226,-0.02866780012845993
1760565915836336600,9.691336669921874,0.11903617531061172,0.00577361136674881,-0.024138111621141434
1760565915846365700,9.70136572265625,0.0793558731675148,0.011802741326391697,-0.0222624484449625
1760565915856394500,9.71139453125,0.052244897931814194,0.008473257534205914,-0.028585858643054962
1760565915866423600,9.721423583984375,0.04248787462711334,0.002459040842950344,-0.0672653466463089
1760565915876452600,9.73145263671875,0.08728921413421631,-0.014517484232783318,-0.13030306994915009
1760565915886481400,9.7414814453125,0.22893503308296204,-0.04983792454004288,-0.21074597537517548
1760565915896510700,9.7515107421875,0.42790767550468445,-0.10834380239248276,-0.24484854936599731
1760565915906539800,9.761539794921875,0.4998857378959656,-0.06790449470281601,-0.20052102208137512
1760565915916568600,9.771568603515625,0.4410589635372162,-0.015676220878958702,-0.13480152189731598
1760565915926597600,9.78159765625,0.287495493888855,-0.06393563002347946,-0.10878697037696838
1760565915936626700,9.791626708984374,0.1004229485988617,-0.05176117271184921,-0.005347428843379021
1760565915946655500,9.801655517578125,-0.005621463991701603,0.06031663343310356,0.17710547149181366
1760565915956684500,9.8116845703125,0.010175186209380627,0.1151694506406784,0.31758642196655273
1760565915966713600,9.821713623046875,0.057724326848983765,0.16316387057304382,0.3935703933238983
1760565915976742400,9.831742431640626,0.10147631168365479,0.00791972503066063,0.25753074884414673
1760565915986771500,9.841771484375,0.07349766790866852,-0.010509083047509193,-0.007184512913227081
1760565915996800800,9.85180078125,0.033677902072668076,-0.030754078179597855,-0.11749119311571121
1760565916006829800,9.861829833984375,0.041789356619119644,-0.022039948031306267,-0.047594934701919556
1760565916016858600,9.871858642578125,0.0972837507724762,0.004196553491055965,0.07264833897352219
1760565916026888700,9.881888671875,0.15274009108543396,0.00719979964196682,0.12515361607074738
1760565916036917800,9.891917724609375,0.1553972065448761,-0.007702928967773914,0.08776731789112091
1760565916046946600,9.901946533203125,0.11105771362781525,-0.007919976487755775,0.03198687359690666
1760565916056975600,9.9119755859375,0.04361042380332947,-0.0012593679130077362,-0.006685835309326649
1760565916067004700,9.922004638671876,-0.009030419401824474,0.0020791711285710335,-0.02772906795144081
1760565916077033500,9.932033447265624,-0.004267098847776651,-0.0007158480584621429,-0.026024727150797844
1760565916087062500,9.9420625,-0.0015575992874801159,0.002270088531076908,0.00043058302253484726
1760565916097091600,9.952091552734375,-0.006046457681804895,0.0005239332094788551,0.014754476957023144
1760565916107120600,9.96212060546875,-0.013406636193394661,0.0030565988272428513,0.015281249769032001
1760565916117149700,9.972149658203126,-0.022795405238866806,0.002982902340590954,0.003558478783816099
1760565916127178800,9.9821787109375,-0.0267866849899292,0.0015525184571743011,-0.0065932245925068855
1760565916137207600,9.99220751953125,-0.018628960475325584,0.0031440677121281624,-0.006846907082945108
1760565916147236600,10.002236572265625,-0.0032819630578160286,0.0018026335164904594,-0.00705356802791357
1760565916157265700,10.012265625,0.002469039522111416,0.002995873801410198,-0.013709006831049919
1760565916167294500,10.02229443359375,0.0007387837395071983,0.0007702698931097984,-0.016885092481970787
1760565916177323500,10.032323486328124,0.0003964565694332123,0.003977028653025627,0.00021000578999519348
1760565916187352600,10.0423525390625,-0.0005151433870196342,-0.0013476954773068428,0.024120664224028587
1760565916197381600,10.052381591796875,-0.004547567572444677,-0.0017326720990240574,0.03670867532491684
1760565916207410700,10.06241064453125,-0.029465168714523315,-0.0022972621954977512,0.0354737713932991
1760565916217439700,10.072439697265626,-0.03352789208292961,-0.0027187978848814964,0.03208927437663078
1760565916227468800,10.08246875,-0.025178615003824234,-0.004687140230089426,0.026792513206601143
1760565916237497600,10.09249755859375,-0.021407445892691612,-0.002166840247809887,0.02989771217107773
1760565916247526700,10.102526611328125,-0.020325936377048492,-0.0011479146778583527,0.027406591922044754
1760565916257555700,10.1125556640625,-0.018466830253601074,0.001797214150428772,0.01930009387433529
1760565916267584500,10.12258447265625,-0.019737690687179565,-0.0017298762686550617,0.013185476884245872
1760565916277613600,10.132613525390624,-0.01888250932097435,-0.0026233731769025326,0.01002388633787632
1760565916287642600,10.142642578125,-0.016489125788211823,-9.583309292793274e-7,0.012051617726683617
1760565916297671700,10.152671630859375,-0.015570390969514847,0.0007046526297926903,0.014914963394403458
1760565916307700700,10.16270068359375,-0.015920862555503845,0.0008660405874252319,0.021893510594964027
1760565916317729800,10.172729736328124,-0.018194112926721573,-0.000706658698618412,0.026289641857147217
1760565916327758600,10.182758544921874,-0.015812981873750687,-0.0026017636992037296,0.018693506717681885
1760565916337788000,10.192787841796875,-0.011005545035004616,-0.00022534653544425964,0.00906146876513958
1760565916347816700,10.202816650390625,-0.011231115087866783,0.0003991639241576195,-0.0009725233539938927
1760565916357845800,10.212845703125,-0.004672759212553501,0.001959904097020626,-0.011058362200856209
1760565916367874800,10.222874755859374,-0.001592813991010189,0.0026440704241394997,-0.022116072475910187
1760565916377903600,10.232903564453125,0.00012884940952062607,0.006676138378679752,-0.02203313261270523
1760565916387932700,10.2429326171875,0.0001200609840452671,0.004742949269711971,-0.02792324684560299
1760565916397961700,10.252961669921875,-0.00016260240226984024,0.0030431337654590607,-0.020211447030305862
1760565916407990800,10.26299072265625,0.0020044120028615,0.000019380822777748108,-0.006915084086358547
1760565916418019800,10.273019775390624,0.0010949503630399704,-0.0013100048527121544,0.011877229437232018
1760565916428049000,10.283048828125,0.0013418253511190414,0.000577378086745739,0.020944494754076004
1760565916438077700,10.29307763671875,0.001278270035982132,0.00004273653030395508,0.019574496895074844
1760565916448106800,10.303106689453125,-0.0012948759831488132,-0.00007177982479333878,0.005938047543168068
1760565916458135800,10.3131357421875,-0.0030688722617924213,0.0010279472917318344,-0.007847970351576805
1760565916468164600,10.32316455078125,-0.0019732476212084293,0.0003376556560397148,-0.01244405284523964
1760565916478193700,10.333193603515625,-0.000007895752787590027,0.0007739560678601265,-0.004013087134808302
1760565916488223700,10.3432236328125,-0.0006651640869677067,0.0013462686911225319,0.003230178263038397
1760565916498251800,10.353251708984375,0.0017499225214123726,0.001265193335711956,0.0076824030838906765
1760565916508281600,10.363281494140624,-0.0004543759860098362,-0.0025724219158291817,0.004052514676004648
1760565916518311000,10.373310791015625,0.0000536465086042881,0.0012822514399886131,-0.004196262918412685
1760565916528340000,10.383340087890625,-0.000757019966840744,0.0016327239573001862,-0.002540575573220849
1760565916538368800,10.39336865234375,0.0038184630684554577,0.000032308511435985565,-0.0009442097507417202
1760565916548397800,10.403397705078126,0.01525008212774992,-0.003963765222579241,0.13869863748550415
1760565916558427000,10.413427001953124,0.054032228887081146,-0.07957315444946289,0.4208381474018097
1760565916568455700,10.42345556640625,0.028164681047201157,-0.1065850630402565,0.6114328503608704
1760565916578484700,10.433484619140625,-0.0009771613404154778,-0.13076640665531158,0.6678158640861511
1760565916588513800,10.443513671875,-0.02237832359969616,-0.06291519105434418,0.3689383566379547
1760565916598542600,10.45354248046875,-0.019355660304427147,-0.014799223281443119,0.04010821878910065
1760565916608571600,10.463571533203124,-0.004131965339183807,-0.003951902035623789,-0.09364371746778488
1760565916618601000,10.47360107421875,-0.006014365702867508,0.020056739449501038,-0.1506251096725464
1760565916628629800,10.483629638671875,-0.0010670116171240807,0.045067280530929565,-0.23014816641807556
1760565916638658800,10.493658935546875,-0.0034129428677260876,0.056873396039009094,-0.30528169870376587
1760565916648687900,10.50368798828125,-0.017576167359948158,0.06989758461713791,-0.3482896089553833
